------------ Data File Created By ActiGraph GT3X+ ActiLife v6.13.3 Firmware v1.6.0 date format M/d/yyyy at 32 Hz  Filter Normal -----------
Serial Number: TAS1D12345678
Start Time 11:45:00
Start Date 11/1/2017
Epoch Period (hh:mm:ss) 00:00:00
Download Time 11:51:12
Download Date 11/1/2017
Current Memory Address: 0
Current Battery Voltage: 4.18     Mode = 12
--------------------------------------------------
Accelerometer X,Accelerometer Y,Accelerometer Z
1.234432211285849013,0.158658064504479085,0.167436018814795001
1.317943204871776075,0.468431882812356981,0.012131853621653213
1.263930862000676614,0.744769110776733134,-0.103281201585559160
1.443940170023023661,0.940873471861091937,0.071299638981739091
1.217620580162194432,0.901461051455872187,0.110397822585172195
1.125670462216945555,0.794007713049629249,0.060109212030478032
1.294593476536820109,0.651781952613955551,0.003871653963656249
1.445827729966379538,0.460287642670203667,-0.081369405697488836
1.489140066762881354,0.438804923628728971,-0.130376683702305235
1.400724767956220917,0.440364384465793790,-0.110587894811226425
1.258593738758979397,0.388035777929644776,-0.078984146275879505
1.107143469127835012,0.448066117902015837,-0.076155205092534123
0.986758053824583592,0.471316757361498861,-0.093657153419746411
0.914657683535327837,0.488278566382766233,-0.098394365733898495
0.837308492124874015,0.463805276840201897,-0.115560398683413793
0.751622645237701836,0.431608388089406270,-0.141036176257436752
0.706611258838488854,0.400465166466503375,-0.125008080941181543
0.617467216043774969,0.368239156397760670,-0.084686912032013756
0.774755657813632981,0.360949093849008640,-0.042157185146920913
0.871787685004590918,0.370892090227631588,-0.033058999163142928
0.784666922302422742,0.278614700331743625,-0.038033791881658993
0.965987405106565444,0.147960883638738966,-0.094150380147993151
0.975722151414710748,0.084323439136811743,-0.168180993629668984
0.944560075174591729,0.267503140721865929,-0.147711026456899985
1.091875868787037351,0.488951957785771052,-0.105051066129433102
1.312970196427745151,0.625856780125706780,-0.119417021343648511
1.502585850163722592,0.638102115271380499,-0.125952751938695512
1.413379737186957419,0.448224745549396453,-0.069325919579718592
1.354865143722155496,0.341726466426118092,0.016452294313425344
1.328406995394511680,0.265961123299628510,-0.012654278930686455
1.198044285416544730,0.236357148576251286,-0.087894380706214026
1.061848350043705036,0.262987604308163814,-0.080847902712065364
0.984987627961203205,0.246063060734060396,-0.065088573251731660
0.906353206524875166,0.330403018234268264,-0.102733123998418871
0.968518354093362399,0.328384061847691422,0.103527416903634151
0.818600522415977139,0.129476115976379702,0.155493156516686465
0.796707595543699187,0.076341281840959757,0.118220233564684696
0.834316793837248438,0.118596888990975508,0.143279407285147348
0.819657156671202203,0.200740700354156920,0.056829194867789798
1.251856538161912447,0.387999960409880773,0.073182491917625117
1.407088534632992882,0.459476166796515706,0.099312369865162550
1.091818745348826836,0.440275306011438383,0.038899845158490480
0.984485192993318936,0.490155015941478089,0.050338650042642229
0.902070031457020471,0.574425486914704853,0.041460104370324172
1.093156439251597556,0.646755808228696938,0.018537937965194914
1.410559696396489926,0.624638118387774832,-0.011583113339357647
1.397081734529382890,0.575492875685389871,-0.019978031462954654
1.587035871577653356,0.599011994528268810,-0.022385757942898973
1.522429265005006860,0.593641454603930363,-0.022963654863776130
1.555258212381571248,0.613239642623520376,-0.014425425707971250
1.546791470012932601,0.598012147679088280,-0.014515042288081696
1.445187588325362649,0.569181620131044119,-0.027786040677017565
1.351617717045821010,0.536805393117252061,-0.032760749511123816
1.144104905999155264,0.471521620502495520,-0.067576652669900025
1.071015617938005704,0.439690167145553812,-0.035341228877168694
0.884596300028324234,0.525183847545982574,0.037143897048548584
0.667179844274080946,0.669928550458867567,0.068268586942810294
0.885096748472265715,0.566428363955730818,-0.032754101468183840
1.112681969461767340,0.335637684866514574,-0.018614392666163420
1.004542650556256467,0.314284205581359166,0.120290217184857356
0.705255939518448671,0.295468931461630779,0.043562849270899581
0.654825846858639316,0.237844582468585558,-0.018652720682098306
0.994521597630187992,0.306349810281505208,-0.081403332574607537
1.156162904431164096,0.340382720715934506,-0.129308511189767023
1.172709788270018150,0.498482457359688991,-0.104325331210917152
1.216482375932081528,0.612238081273825507,-0.054457809533009327
1.325411423163365576,0.592508504985369444,0.024659344767988717
1.351066877309280434,0.544224073412158504,-0.119157309418588847
1.322600101042452181,0.580925254685569215,-0.263372543481412869
1.252354112446310008,0.684226714905405653,-0.321495737851886731
1.285285228478940667,0.666399609731738174,-0.185451338520178699
1.194009404120905726,0.562774464588437828,-0.169902679324852895
1.142303687740377605,0.456320973031375421,-0.228062005534364343
1.015400760862992469,0.212945607624752509,-0.171820507692980379
0.827228642507200185,-0.028298675814643150,-0.218975824618033887
0.935463497027531288,-0.040627511901096910,-0.242713426406199390
0.957832613885234552,0.158979083678105482,-0.139468641065192328
0.831029568913436045,0.336133682611999607,0.020031390782311073
0.675304743779626127,0.351107041825992949,0.133863497669805875
0.562520606923793465,0.352038787409548193,0.132864511872142405
0.642992183966867525,0.383986788704322179,0.022524332703549647
0.604556033033073037,0.322908651888640263,-0.039588207541864665
0.749137728208726927,0.296520324744888431,-0.009532067639985344
0.809378203667762586,0.268053847329342287,0.056802410555048449
0.952948108683875250,0.358000603057467448,0.074618100797057121
1.075542328112397028,0.443596816981929654,0.009959133889331357
1.300078912540781895,0.569297342151641295,-0.037300830514355870
1.470818784012761338,0.626124433591867646,-0.035732833957857431
1.635796119837108487,0.607757865701810895,-0.001373983746085480
1.670804966363123922,0.559836658343862870,0.003004804189829736
1.676599680477021570,0.484878368733879461,-0.025815063105456490
1.546465266043166586,0.447815348506561572,-0.051689546382340634
1.215082311620722555,0.420725005319934509,-0.087567099837329784
1.404230381892452861,0.545629720864227230,-0.032285882297830235
1.393497111507258968,0.718116292594734640,0.054182605750070653
1.178012660461153160,0.641410793182358607,0.064541610534080848
0.913208115566970791,0.375782920664918862,0.082511241568004462
0.842874811590295092,0.295223206433523344,0.118838747347825444
0.889594553670837285,0.393968765030623391,0.090547735313364602
0.970825366870824547,0.422267973991495238,0.078952248211736756
1.022936296307011661,0.431029511413306143,0.021823428789085629
1.118133540702058060,0.516022709045023786,0.051548222220903793
1.182148123219817659,0.491368695978107284,0.076777533228520572
1.218471104747526956,0.511000490338870406,0.023633364946559328
1.299688651865021471,0.546785654943038990,-0.012640446381164220
1.417679138557202734,0.591027500721737709,-0.015666351106609997
1.418479559032462367,0.624821941673997294,-0.027969633033849743
1.436154067100319454,0.550139386993347523,-0.081369279870874112
1.580937525655099929,0.531263925632248446,-0.051304169922542761
1.418511737498728165,0.474669992733730672,-0.023998646673862457
1.141695724565626291,0.415063001551949251,-0.170507654153905785
1.220420434646396712,0.360684806717832263,-0.215118204129902874
1.276426251954609903,0.365786307914654052,-0.276330219377601438
1.354178970123316672,0.405285329022523955,-0.259146246335182073
1.164316408685991622,0.370546246761151887,-0.211491935425244970
1.044829622510191625,0.412628385932753083,-0.183711419136656340
0.947344964234885012,0.395141128608895165,-0.221620418484858722
0.821242157606222434,0.358178990071140568,-0.247459063518139649
0.739240129133332147,0.299832803002883563,-0.231784907556895292
0.673364531881212591,0.241890142692879589,-0.215967398621238149
0.637295091096097499,0.241009117626166364,-0.191602648541119192
0.630094666369560241,0.259634368935932003,-0.150506409457949297
0.618360898427385730,0.278095948230970114,-0.167049695254327307
0.822144746737548671,0.354548137830142607,-0.132256175269476250
0.981076500742775637,0.411108464387487216,-0.097879301080390432
1.031237512871028938,0.367212665982338426,-0.216789146509575065
1.383103723549236941,0.413567156957283688,-0.201282721947562970
1.274840950793052263,0.380966804114279134,-0.041818821939097146
1.102790604096716587,0.406743144918834509,0.014279700407718220
1.289926686878462236,0.321339164982926029,0.024085555390493379
1.479251674661739457,0.356010971895907913,-0.085286991200813067
1.609286494372534682,0.348135833147315388,0.068084692205522185
1.417263932909497592,0.369687212798536169,0.156915930674492526
1.117694475926739095,0.328373706539883514,0.117192594030000277
1.035580972719164494,0.292476416355064606,0.050602679222108274
0.966190155225657876,0.286910809253416554,-0.036416585896289141
1.002871519189398875,0.306587453846439817,-0.048415263724004169
1.040926715526050872,0.360130299763338824,-0.006884438752164997
0.916426036814411149,0.349575317045519307,0.070172037512751695
0.713980182633555782,0.306984843746996638,0.084793471282030228
0.662659080627507446,0.358223077052209737,0.047359423031531268
0.855350289376478501,0.475679928317604694,0.069751116404785013
0.958095747888972893,0.568298054646581563,0.017265575461769163
1.281359749333689457,0.606411082895801146,0.011939417044983743
1.306142707186235707,0.595859199939851814,0.115004717572540424
1.151350075717011201,0.539413210141748478,0.093007328763331662
1.260222098614449893,0.572089808379595222,0.003490762527084397
1.425195474434922227,0.576185592442654659,-0.032070810894006145
1.511511856657956399,0.657130893339399225,-0.084713159881112818
1.548668423867156640,0.691842239544180004,-0.088464799525074550
1.551630131334631457,0.628164492499262761,-0.014443323858670393
1.481270295192970377,0.562576689554460718,-0.027472466531040823
1.375628172658961645,0.537388258138501440,-0.053118465276627745
1.294478342024798279,0.524074415533901106,-0.078535979490917451
1.172989861177597515,0.502261315367145467,-0.083748100960568034
1.056229853883914327,0.491867730819418369,-0.043650889617266535
0.861833949230951690,0.456964976543318857,-0.053636103586877315
0.773210254003918518,0.454754549419379261,-0.046195446855298396
0.848372913223675029,0.550490212161129810,-0.037209134798941279
0.670176103018655822,0.647437014521760279,0.018902926501961945
0.810211188896179602,0.628370971006577683,-0.033358782701802342
1.042126016242260311,0.127356978485386491,-0.077038167477190000
0.816563689058412479,-0.178578353917785010,-0.054644940217295955
0.686460852637748253,-0.020555751252151911,-0.216102159029043117
0.908561023910179677,0.307812811786188689,-0.242618863438608917
1.255550748499143054,0.609346944534899349,-0.185769481573791279
1.381868584589424742,0.646335993212010074,-0.135243542267962591
1.388312347092054644,0.548996082066978586,-0.020081103112743141
1.384808020122326067,0.402549019583961276,0.029118569526537800
1.348809269084451312,0.270239904731675251,0.003987593492254029
1.331286433329659014,0.228479735983023735,-0.029121487101041878
1.329408192508932052,0.175831370202515991,-0.082673415016726148
1.402712510031700610,0.207689733698813772,-0.090221544536909754
1.391828266890881460,0.252464283326040762,-0.090275238989007175
1.285713614148784156,0.230960524429791814,-0.181749537438162023
1.123248027744934596,0.196824458461164253,-0.228478986867768852
0.940876556986847135,0.121033653122718562,-0.119084099044742153
0.565249771660755296,-0.057309367542918918,-0.143155788728529937
0.735185262653600180,-0.011814365101835991,-0.199204933877654256
0.853060902016286038,0.280311748961414975,-0.053882737922103144
0.743113032253311712,0.491655345559369628,0.085228266881724066
0.735175844426606440,0.420337003568924283,0.319600670542426857
0.846560603484508900,0.531948027780111632,0.275438329293596740
1.009821462497605182,0.764605439039334533,-0.200142243814744741
1.077009221271486572,0.627226981403999795,-0.388932357378782290
1.183863511273295366,0.483692095514682951,-0.165953992254380955
1.350713741843626581,0.480535145142198306,0.037119308912704554
1.470231020188286664,0.401018742730887556,0.128615864709169830
1.575433777720439688,0.411176957558315070,0.150129374316428088
1.556049627004750358,0.459438901349351725,0.088290252718980944
1.542942026689664736,0.444034279320514202,0.018217464123048730
1.512016565332309881,0.503294271879422328,-0.014913873817557603
1.415085419830914848,0.497107708392125813,-0.024007574778109574
1.383656536765709655,0.669022596326426799,0.000563486370406004
1.038338630057032530,0.679241061061269136,0.100367548672276721
1.203322298696088755,0.829750301266172663,0.077288700049671366
1.162555576083755593,0.535860751808139524,0.002590279471573561
0.806545596352241878,0.207798430278435503,-0.083164017361004913
0.781747986346334578,0.165935168661629801,-0.025824695442165532
0.754610884870162035,0.352958729757895606,-0.017658052138841189
0.906278256547222716,0.656912245889566093,-0.192934682464303786
1.080700659466980795,0.728771765096914881,-0.277718437525215134
1.079173082196708267,0.447391341237655116,-0.047604229479784141
1.223902090350649674,0.398558602233691162,0.068830530236656154
1.258470971421734363,0.680844750120429221,-0.070476892860607598
1.231148345912836506,0.698970078005604512,-0.025445295950029072
1.279761281194004230,0.730160361039358663,-0.090812141567776561
1.525707969467995140,0.766266936722356129,-0.179110207521515158
1.448011288893167992,0.542924681256158448,-0.085385284231941166
1.488498938381898506,0.416261841257544563,-0.134518142887085912
1.470501199608184040,0.186848184980526688,-0.106097400716709978
1.174585068870847460,0.156819643644122236,-0.223947875910988803
1.108744022895828074,0.140063194441928218,-0.331517503082584153
1.222842294753354375,0.206684450577083956,-0.388041473502797163
1.277151336165325501,0.249415344856968924,-0.297006162081127789
1.105420860624047208,0.256512676739090617,-0.146295436805676166
0.816942356905074885,0.286912194514772456,-0.058310861113504503
0.708723441504607976,0.310474449089397309,-0.067476196619057960
0.627195329310674010,0.308344689717481801,-0.171056687626737425
0.538040693470839049,0.302324009423503681,-0.212995104463479995
0.571774903016101232,0.337010719333563524,-0.146835248578826350
0.610776846066334422,0.270466534510485079,-0.088953909924917918
0.650644253037787501,0.241468738507766595,-0.047485917220447843
0.783850562707298804,0.233586840891313041,0.007172427339299684
0.972516796692323382,0.347199832645496476,0.041867444581998085
1.202988775171647484,0.379240634166660817,0.039827070584537758
1.336240229163379922,0.386339617883252662,0.053357864782943118
1.603545243919509478,0.321614340568138979,-0.047189914472552517
1.745191763792673934,0.343931849182710914,-0.041798601784885953
1.562514674701988016,0.410771156955426986,0.055387231540852191
1.409646814446579910,0.481855514486928593,-0.139268726386506225
1.486683754483188569,0.652701894962303020,-0.146650910047327332
1.589812441299294665,0.843110645937503511,0.006671773641161052
1.287194948208494116,0.813050772104561115,0.045102485685811454
0.926914072751652274,0.590087903779972001,0.070494917242819755
0.883431164302323491,0.322468748266502514,0.065739387355919415
0.894461433454926902,0.296431512863647384,0.024670016469900691
0.917784029171822890,0.473290926181859750,-0.155980154219144074
0.838547290862023842,0.381192874548968219,-0.181456015677576854
0.872525735071262076,0.419653957443258507,-0.098833478587998708
0.847761290271586421,0.359075806718210988,0.020201653896079939
0.885188624309748318,0.382589614620628904,0.082269343909234113
0.996208367890372481,0.497898766421204397,-0.015377649906890103
1.116115606684255468,0.613512837135104738,-0.018318339191041626
1.260285554867369706,0.789642268248888390,-0.197897847595216503
1.690676685727153128,1.036979818271113629,-0.111561294645149578
1.452486607990983059,1.012268059246379526,-0.093125430906745132
1.220236583867066349,0.627279479087400116,-0.132580463059569886
1.371852092120305455,0.270701674125822356,-0.127462946499714680
1.322251625138112674,0.250619228929911009,-0.210206411447575542
1.250764164767448783,0.417813717309513222,-0.144852727304071727
1.140613544885382025,0.490207388292790314,-0.063475516751948527
1.132641904885941742,0.478785661495170711,-0.018300608809162126
1.051801352361714903,0.472998139742901169,-0.031365505840725935
0.856363465606888141,0.419245945661779473,-0.103091380607836111
0.873521285884401921,0.464704241999819190,-0.123466952581834266
0.764898843725682176,0.473240765009138475,-0.132650228180291790
0.790478262049613578,0.518945674958564918,-0.111808633212837336
0.644618270115868919,0.477785485406831745,-0.080227267851415568
0.916916878953197401,0.548462223062056831,-0.024260722544639089
1.160410528437941791,0.471947572376878621,-0.046860554468364131
1.041102646297631829,0.138460331300003181,-0.229263027088222965
1.204533591572298334,0.082462159148292233,-0.256667262790080508
1.135057131951653364,0.328528283176070746,-0.203563040295104247
0.888693350610379240,0.457500717487673181,-0.209738099607790579
1.082367144316534802,0.454875023036316772,-0.166881343507042951
1.399539432879943979,0.421497004567867539,-0.188786751790424312
1.596554601684213592,0.403910580054960777,-0.178828489902374516
1.478922497428064142,0.359713584508522088,-0.134657094722682530
1.267079393511390872,0.260597279577106988,-0.099601867561877472
1.239464715978924714,0.241247979013538616,0.027675860024933361
1.157084405946263272,0.194085875177966549,-0.034812960807212058
1.178641522543619979,0.254666299747649094,-0.059249303490127594
1.148411940194623559,0.193807866403997830,-0.104831971066637025
1.082601386388464260,0.139617153962094204,-0.093124526153178483
0.827509702154745508,0.106917242024838141,-0.140673770162432793
0.711839494322519140,0.149073352746646487,-0.137544709902788720
0.608687535787862943,0.195328906637505129,-0.097272708480287434
0.662217441919181860,0.252937526716237260,-0.141999575464726524
1.085474877795794102,0.409934590215771388,-0.133982933178754926
1.313303333665294836,0.599691815559976305,-0.000126494188916577
1.113103408819816620,0.624770954584040972,0.063950258543525651
1.091275525393498924,0.575388068316721402,0.022567271569325281
1.255493625060932539,0.560670292760566680,-0.041818570285867683
1.287612440606679121,0.576435802493988070,-0.103232159925507383
1.328370556697833882,0.611194210109619940,-0.156322549870961391
1.313766957125667156,0.509494787114473602,-0.131863865956325599
1.370089972551566060,0.477197905257393917,-0.040882416755573289
1.345458287681182252,0.442843024400014995,0.012351326164293495
1.310377764667960410,0.490755261711510848,-0.000256559862470965
1.231086275730785440,0.541318718352363226,-0.009139632500219950
1.192830302754973149,0.611700066484836213,0.007045396686740825
1.089326594825531291,0.654167792321786457,0.018511069768043745
1.196373441232213564,0.604252202205938560,-0.025844127479504979
1.136321763296348930,0.475098715130825466,-0.047071098906757293
1.002471652208483333,0.441718156244626847,-0.048289641131470884
1.173178358474231242,0.517260136793095016,-0.108417455140211713
1.063536506374757717,0.514437660663914720,-0.199905166716839694
0.733833002657823141,0.378583405690001595,-0.170044162874986082
0.606283301098175076,0.247844995565867504,-0.072558462126178710
0.729040772624848565,0.322230216118288670,-0.083741746513062432
1.056934738744353730,0.559344487143287106,-0.171121179607361562
1.143325470491965312,0.659018132217951469,-0.273115692023433665
1.254782206263611588,0.598019340558981982,-0.239272074233989385
1.234092140780515434,0.361184792808466604,-0.033970531400409933
1.276497529110913964,0.437331237577079146,-0.025293350409008455
1.315706581615017079,0.415738666799589096,-0.082565564748277281
1.312924065365558057,0.479438838960636438,-0.136014295187558337
1.373434020687051893,0.480956549327311300,-0.131362172488085766
1.367167076591603303,0.386980725540396198,-0.098593743948942311
1.299937546090311979,0.283942930441571373,-0.099288251473695827
1.188344390612036783,0.168562018269379721,-0.067474042384365551
0.825632748300521691,0.013087150159746454,-0.066724012925439946
0.692562171824210870,-0.106707094141272385,-0.174988147621788825
0.965930680999257163,0.027748272248433192,-0.193007239737813308
1.061272265108682333,0.244196469805079780,-0.089099425919044670
0.941770826779521619,0.233863464403925914,0.099085712815940016
0.817247575906771218,0.215818041019583712,0.196705964261527783
0.818601608260308145,0.361996002109040205,-0.099366651103230452
0.836183940264144998,0.643770982680101023,-0.337566604265097936
0.897195630996083571,0.645351483371940038,-0.275310794929680636
0.933269031785073588,0.623770156485537131,-0.229755121376937127
1.177285602770505202,0.494907636575994070,-0.030232095172896774
1.275863033771177601,0.411045177384246396,-0.017095647480741306
1.348563747453972006,0.307647257832028787,-0.139976772865347598
1.403043073336244007,0.263888221302251258,-0.225934387687532073
1.521010987867314590,0.300639626414427319,-0.208396517232306761
1.551032173795937830,0.357728171797074168,-0.175161981815297213
1.489830999027399461,0.209711789847260799,-0.270473261176322810
1.580217800563137764,0.136863045671653638,-0.306769623446791151
1.525683024496050422,0.567438336007756838,-0.031188309873604273
1.249668019447272016,0.744598805226232785,0.110531995802108401
1.148168692270613800,0.321470553251792190,-0.063569828066309550
1.232210240182450844,0.158379993064466262,-0.087666022001531535
1.137129117039392234,0.332531392344827870,0.022741642226475966
0.869190593683492052,0.502407669299133608,0.189211948615490733
0.897281761427920932,0.495609945389875739,0.197682944365110330
0.925613203832451159,0.515048946417964393,0.152696197686791935
0.993847891452037335,0.505494636466560565,0.153291992758368217
1.082630878773347627,0.518956422171575227,0.129406594914768858
1.034303362474502386,0.528983745408213357,0.100188147743236186
1.068293785799729889,0.601140598743790777,0.079987323906232907
1.141880849267449261,0.655497194379012771,0.035435163116583783
1.314686472116823657,0.648534413193671555,0.008160909203870841
1.478735973611362553,0.607588882746622261,0.005461907867465114
1.464512041669834952,0.554606476734842646,-0.076999378097001095
1.560997189128127127,0.549505801455255960,-0.084377328387825662
1.379464650126273950,0.526233296223763580,-0.040752434966428726
1.002463732200733926,0.486642860150859169,-0.188130488397195872
1.195270775019166232,0.487652502963726808,-0.256362071499687039
1.379846004054318787,0.462232627506573401,-0.262978490570597356
1.310481718725797551,0.441695109118331930,-0.300641107236803318
1.193679240147264675,0.435040017369027199,-0.276997607051974293
1.107896471574404185,0.376624343773789005,-0.232557446016360803
1.011460428442207959,0.374243548433305040,-0.196386622454015919
0.971554510189780118,0.384517485281329674,-0.184387902684095994
0.858145184072828915,0.374139566981871563,-0.222431284960259101
0.761054746477157207,0.356701644913499871,-0.215080244808790622
0.749172279485826875,0.337706535852698386,-0.132919203747237841
0.728451421607333227,0.310925037258501347,-0.116671593946137436
0.824620657914442945,0.302041018948232265,-0.148741323532735753
1.024047681189612868,0.359632587517339508,-0.093433321680494841
1.020624336785708630,0.228170891390593655,-0.081246650357131439
1.010645068631060628,-0.087557842456316246,-0.254434452215950679
1.155591479057455739,0.054974488727152437,-0.240670520694202444
1.124314555487841538,0.486038458596758816,-0.071852452840436579
1.157724933874171303,0.561866529382368474,-0.170225223517281671
1.482235353837250136,0.645061237350730843,-0.171383012609930302
1.683003344505636711,0.582615110435346972,-0.054464457575949303
1.496852819944984425,0.394037132869363038,-0.031609650403620064
1.241664514252114770,0.162499650171055665,0.060533905144187251
1.115431620731532014,0.118033615897100291,0.042915388155303526
1.067940363151549610,0.161859865109223872,0.005508208101955732
1.001214940871537395,0.250223020383639860,-0.064940735254092857
1.040304199302303889,0.367540010011793261,-0.101510096750479270
1.025580805656800543,0.404750147422290374,-0.056348559992961081
0.956601434929296945,0.369285567979715623,-0.003509037752729461
0.918702857649550508,0.308274706512424002,-0.003903342316774443
0.899638578088918561,0.337857641381026974,0.028869739014414655
0.902505736681539217,0.439299269539743742,0.045449030823215504
1.048836971856868416,0.517956512656350565,-0.047805719987315455
1.403130976125840812,0.650722415201480997,-0.019852492754831190
1.388671716268052858,0.680477992131263587,0.078789211546755056
1.114369726461917676,0.658623700838238624,0.105136114206805992
1.146746042754133166,0.670677627912593777,0.084863529998186499
1.337113012639274734,0.724198874630597844,0.037231644204379445
1.431686754070607970,0.685164722678745286,-0.085394044567368640
1.424276946183731907,0.568583026195481622,-0.114370761848950606
1.442271325406646376,0.475221462592398058,-0.073158205757338737
1.418105537703103547,0.440924887036957258,0.033564674753048127
1.314904474842351734,0.494661911547886635,0.045043802904029082
1.228379395972407639,0.582565508606746496,0.015561158784210730
1.149807344944668186,0.651938039843586892,0.031387805535139542
0.942116329419952381,0.718068901944725169,0.033723981354492200
0.935234789108506326,0.586578084500032237,0.111707599161046348
1.144424090640783875,0.148786765831428247,0.039087587000909384
1.264754468134132281,-0.107394170718917589,-0.157573409986765112
1.315607686449396407,0.126645762291096919,-0.128099274549144743
1.250064625981752497,0.387775709248580125,-0.132544960353605967
1.320622265498665016,0.483338729929151167,-0.189427271267645997
0.943636587135549654,0.699136457876999629,-0.196677352061813498
0.719902795993258682,0.798568533707624151,-0.289078792052605782
1.011338647844928884,0.798489580456114290,-0.130154544833492064
1.118539740497682455,0.549767814741797256,-0.006015099206006791
1.199756300875211235,0.454115919513940980,-0.100013734738982313
1.286836578816472620,0.264795330591085509,-0.157021877956580180
1.357567076736692524,0.191504968292826205,-0.135893744809119810
1.357524605451842836,0.195243461091248571,-0.152347455967592277
1.330998440414330464,0.269625581881799581,-0.189539564617115991
1.334154977993148306,0.389822464357792275,-0.197625141964732798
1.168809953654151190,0.393167785705769435,-0.227887383223984191
0.966149070011676603,0.350550402267890693,-0.237953243727253377
0.990339017069370220,0.178536906488661440,-0.167961353318209050
0.935275986470863407,0.075810726504978401,-0.160319248021303734
0.679959966696907725,0.028107508118546832,-0.187313686896338982
0.783654844960354757,0.019357977839013989,-0.281029975677100197
1.163532227557133369,0.175366438380454653,-0.162314729844299011
0.916573749123601011,0.255594945569334153,-0.086257113550431072
0.917401688503812096,0.405854535067025068,0.008521077179772574
0.977817395176988957,0.399872834720725212,0.025507876969066982
1.059308382160816686,0.443179835153998614,-0.002527866221355294
1.152529177082944223,0.490487608245349982,-0.083940747248262046
1.231895015544697047,0.458652495782417347,-0.124409838039478457
1.343488471249509653,0.401414622038000268,-0.086447186181383584
1.403224538260729126,0.354165980165822236,-0.020135133102479854
1.519246495487740933,0.315797697497922358,0.005542134979074428
1.583586295235301034,0.309903423771507647,0.010221125875698168
1.534891090421806270,0.304909500466066130,-0.014900712343313936
1.336502089244625768,0.288629723655097203,-0.078388477030917933
1.124463554763534434,0.350876361035989681,-0.100779918750942207
1.254706470668165430,0.519389896165010412,-0.004836964132532231
1.004564222933390427,0.738548177697072594,0.202980490987079709
1.105450353008930353,0.635851944948571557,0.076235684262271175
1.313719139766074573,0.475794531649960384,-0.033155054075168798
1.188031439680752310,0.559089854734771685,0.081008650935616641
1.044911192485079576,0.630586771737022378,0.079808174630421835
0.985562713112249078,0.681627726686335089,0.046416998938141094
1.046853189785263760,0.728168811470214394,0.001748353371230362
1.185729472751495983,0.675263476770512128,-0.079355564359540401
1.229451969347497009,0.665063511472694713,-0.116005740158404869
1.242907359053493366,0.706718313508556961,-0.087047046854136778
1.221428551984589772,0.642403881163678081,-0.042042443967324157
1.160326572608208817,0.610861617805748103,-0.022043152580057099
1.096998262793652978,0.673039594576894662,-0.084258554764235341
1.156970644461098985,0.674490029595179230,-0.141324667746132115
1.272869147837437209,0.624874873369430262,-0.095088109507132756
1.217461000885391220,0.514617887510190331,-0.103913170438377944
1.288406528267229900,0.441354435351287155,-0.058097743018369827
1.198249708573008832,0.394026448322396750,-0.087741847974324660
1.220176199982420551,0.356910433733601762,-0.231580885334827374
1.389915573897419376,0.259712532738358759,-0.333024662622607825
1.418695987608960873,0.136539360748189675,-0.349344158621939183
1.309351434503434053,0.107547435030053040,-0.325655892089259880
1.140637116830469200,0.080924297510122367,-0.187293340915513057
1.104292549881615848,0.185239122314861365,-0.055860573247628748
1.066465348862538187,0.296856016810630507,-0.117802640668249636
0.944343758746469364,0.308657956667093780,-0.299900005882124843
0.898882414300278820,0.288689848230423818,-0.370263985450108635
0.909412235008940750,0.221408096417820499,-0.341435357819394936
0.854750058131315438,0.114988273867975277,-0.276194050909770894
0.904747719057052202,-0.018779357465768223,-0.135994947034628694
1.154011824197178404,-0.065025052726895641,-0.051544785347902272
1.177104051785665684,-0.244663539869428015,-0.084425591120925514
1.302550490470920863,-0.485632647723610755,-0.202856377909024943
1.309885348380144254,-0.042541723585049374,-0.264081219093327879
1.219804838646422640,0.739943344509245038,-0.066648965879598732
1.283707547098595469,0.809274187941739664,0.119124045236625439
1.568321955340938878,0.572481657234728658,0.224276598401980248
1.688414331880655705,0.380319329494477054,0.266299853200172854
1.708747602120760156,0.403308515011539581,0.217131366012449478
1.378869953034015605,0.477489369101040728,0.041480240640125537
1.049699462514179560,0.709402313261851436,-0.076414665364364323
0.917509889748050256,0.709923835885336696,0.008812687573873264
0.880506281818417724,0.517588040166670593,0.053557284940191852
0.927316612769939264,0.473676575513252762,0.012788033130471829
0.969509944902627430,0.395896698357368237,0.008973519276936088
0.968352128731301831,0.493494467004873372,0.037856134955181593
0.767615616971741632,0.649943390512572661,0.097939476211506477
0.709663542132932257,0.742340987452283718,0.097514028138108860
0.934546529881359778,0.834390592412968202,0.194222915115249278
1.256911902198624809,0.853672120950069724,0.143614292082662964
1.701945744364624646,0.876195381288917607,0.291579170538554366
1.336210324403583449,0.626746900570960164,0.234613387780884947
1.240956055674691694,0.594159877465545438,0.036254873811821471
1.389204442282624852,0.672653385901380796,-0.299722432435159003
1.652389933399954103,0.769203624278689491,-0.445409071678813273
1.715156711328483352,0.639566831276578318,-0.239265183322841524
1.675547105330036146,0.492234258703621752,-0.169815309648866236
1.594033945516000639,0.369900857987852605,-0.364023562155516622
1.262255783673955190,0.211324119713714509,-0.502885979315428555
0.935123426522197709,0.161899216402890622,-0.444119976621404344
0.719350583229860674,0.197875522505263440,-0.351371278475724469
0.682796332894130997,0.339602185433581949,-0.359788328120017209
0.697533979362092715,0.426343152211812959,-0.322546716446187709
0.637645253297842607,0.458597457681267584,-0.360074866300023111
0.750003291234311642,0.435149539865884005,-0.338530045414592584
0.623179660625345466,0.319477226516089619,-0.203995463164059559
0.734683127912253098,0.059658804188972903,-0.014000849635855201
0.960603850576143614,-0.182571604456810921,-0.156227459629648457
1.032057446183136218,-0.086896458195589499,-0.110246044408072938
1.432743988778907740,0.411191735223304877,-0.044504284321415011
1.717905362814271086,0.838736293756354612,-0.074481353518481119
1.567439064211179511,0.838585188228026079,-0.236270296280133629
1.394681859174472072,0.534010653044662997,-0.168151132353727195
1.355991381880290003,0.049043074885661980,0.123152414170042857
1.346114968895137709,-0.000055106405871886,0.065418745744953585
1.275153202166897426,0.234593713181468988,-0.017270605328760739
1.268694787510906252,0.279518479753745386,0.027971577962415870
1.250247777203643107,0.365335782411593979,-0.042051791493620379
0.969421342555590870,0.253217249990720261,-0.024077465725446199
0.622838804502218291,0.116865282770807863,-0.080765344811922435
0.455099151778688427,0.015084303440358115,-0.061778578176406737
0.665143611369590881,0.016636508731485221,-0.002315787896321824
0.760725869470019522,0.187785471609505344,-0.194673487383234922
1.106891314456109221,0.489216448824017658,-0.232458733563183612
1.206300344614330111,0.705770013093453552,-0.124400532455387153
0.999161855123560372,0.651764509199128206,-0.150973882453636077
1.003343448944412408,0.648140353159947225,-0.122140685915286540
1.188296959539335562,0.611536394470108768,-0.050594128192807078
1.310520817415835815,0.663391987721023701,-0.053575224628197630
1.361931907839789124,0.814734302998510240,-0.168173138047808146
1.433100483795361813,0.797655883373366570,-0.270414200914696201
1.409552265571725860,0.646974889690562605,-0.196710910244109555
1.372302736680711455,0.563582406688223125,-0.053122908357648851
1.413494871698979471,0.575932282629450953,0.013081713874855107
1.303922023049340684,0.554399402415254983,-0.012595638091108996
1.280828808720887668,0.602600829725762566,-0.037439656523337736
1.174991555848998281,0.566156554705502302,-0.050755463202328828
1.049276336858724568,0.532986729244882218,-0.043673230848986784
0.996606248347345236,0.648104535640183110,0.030025952278218075
0.823361260496114467,0.640037100236992784,0.053167717052602342
1.045683107315422244,0.416479004311825718,-0.097301404159513286
1.083812953403189283,0.316131408490035737,-0.035345881669214346
0.826024982456214030,0.298472957032398400,0.024065251351872364
0.743322128231123980,0.251270487987792168,-0.075454510889094648
0.942102776154933208,0.349963052223415172,-0.221710077007174072
1.230236850033794793,0.616088574320810101,-0.338213855669669439
1.340912764227383036,0.682685194161244846,-0.324826330561267029
1.327559543177453172,0.603605098932124995,-0.226278853689631992
1.302869447902355482,0.561755292384997329,-0.156595884634518734
1.271863304205713474,0.433411132671025268,-0.082937360311782365
1.217730780974386251,0.371983289375802550,-0.095818664986514007
1.152403449525800871,0.388985400940060011,-0.248607966448746082
1.345607386061240307,0.408763753139881558,-0.329160771571381017
1.324749808249580330,0.378221336631132166,-0.317032195838931274
1.282129390457562357,0.302047981723163605,-0.350396671102880475
1.152018835151320975,0.231293676077784505,-0.269333244407758576
0.756054819581249649,0.052423821848200665,-0.314156870536685451
0.759503709410173311,0.037476546856328272,-0.334711717613109416
0.922740511086925896,0.101659590932340990,-0.292060937043119140
0.781408216067538408,0.195843111049008534,-0.157454384709945328
0.706036460869969407,0.340492305878835388,-0.005757918995483723
0.764158120621639458,0.405759523662043708,-0.009294487235621367
0.847762676342454724,0.418976906934262761,-0.164881292776411836
0.935340429463748846,0.424800246206296361,-0.303983033938352631
1.060223349739034537,0.401708793738314696,-0.232956109777017056
1.164490253829264521,0.333129923614346346,-0.075756667158492580
1.212317321684168281,0.281858083967960193,0.023359778529772512
1.341752197332327201,0.288883096134344874,0.061542028757122405
1.325543496579228542,0.314675929104404339,-0.029090008054049966
1.358830421114884945,0.379257126332164907,-0.106903488573449987
1.261453277570387721,0.361783324077985080,-0.132468840785378489
1.293211037642730821,0.358784609447678593,-0.177446659359449754
1.437433350598376069,0.749124963520857223,-0.085281960928923220
1.273461459074850310,1.030491231725291890,0.111016210541698190
1.337295464303725812,0.945913693326193572,0.300755722994683616
1.314956839614882744,0.708872834507281557,0.316788009738730503
1.116038884348843574,0.403446332909108363,0.158391946705163572
0.946597508985230873,0.230320038782813125,0.201980792171932738
0.793360574144304609,0.226482049556183368,0.196504389869586654
0.885770055319514027,0.438819497386648494,-0.024641655923415853
0.910997424022122471,0.653355365198775129,-0.102383250244584917
0.918582763349676923,0.619803052834676182,-0.052977350421317189
1.067433667953253229,0.601032958186366484,-0.018761853183958024
1.099812657282840167,0.631806259392189373,-0.096615698912392162
1.256288399234911868,0.729644771366499412,-0.008736190120903299
1.248231816665772653,0.725700030165724486,0.003531295504938159
1.184853415785154906,0.663922417724916780,-0.145201804156012387
1.211376607558758645,0.743439708719506820,-0.120205294934099205
1.442737909086916348,0.779335613642969882,-0.031721104908991833
1.513325054032723216,0.706027311251806511,-0.027051167943229940
1.208831006418600751,0.510601385937799246,-0.157478469539330423
1.180357897337063422,0.378426759116249567,-0.244256004767777146
1.368918302888684213,0.379308610100197952,-0.337210720386419194
1.411748803398480190,0.346534167268613968,-0.406804198688036744
1.291471203052575900,0.197179475881166244,-0.342185638931550018
1.154651365385120698,0.171318541645481492,-0.244681872263223854
1.099055707876406718,0.177499794192316929,-0.171112754809573386
0.900895002243338183,0.153760971877407338,-0.185234900998533930
0.757101448200417360,0.352866755448740299,-0.194547822848496726
0.720745301466476529,0.351949850196218939,-0.203099465131774737
0.570995767735448689,0.351888445132410632,-0.282597426984934841
0.597378579798548581,0.277488384248955555,-0.261863514517109597
0.609103041662105271,0.244050408644097938,-0.200078129313964792
0.673980415063713312,0.238223410266073465,-0.133680902735971746
0.711889585388581048,0.273028941958600613,-0.051027012426016413
0.840360788463328290,0.257470506544766831,-0.054017162792268814
1.172722067612544938,0.359559441884367448,-0.137371831190073429
1.094319901724203348,0.413978001927518546,-0.055730339805254714
1.160645457023300020,0.460745549051289671,0.014844226143327158
1.515140237931432932,0.469587257547048054,-0.014918400782988527
1.759951982421746441,0.438163256627464637,-0.025120765291727541
1.679980853822613751,0.447459771742438839,0.015321415360132790
1.255006742926020769,0.339321034790913023,0.122534613404385595
1.080219324528984615,0.271159643172952380,0.153833715898002904
0.999596474503748222,0.284118405691506704,0.107874851619172180
0.948395166571036063,0.196447078591076296,0.049737950525790810
0.964862754141471268,0.226843763178002339,-0.003571953904508380
0.916460888318048394,0.218142742236720533,0.016561762352924343
0.948902248056223918,0.233948617179176088,-0.007820885877893761
0.761358678512350284,0.326789217502895080,-0.087565104586435460
0.800946699089652769,0.598068409241353738,-0.078726378874487690
0.856029628811898702,0.689565655760091656,-0.049350997832249457
1.026619514268219069,0.750117784929062337,-0.076580359570497358
1.545298830306651716,0.834492566592880847,0.010383131960498487
1.465585202453987712,0.840077499048788812,0.091966318043379014
1.076858436594023027,0.774023938364690300,0.067885826081958853
1.200724619965926276,0.758292860889676956,-0.000972947254690700
1.327456975190484334,0.712566351741355630,-0.110977252987791375
1.308403688005876031,0.644407997219221151,-0.238752356788435677
1.360339386227921610,0.630684757571785770,-0.246533497805347418
1.427407251824101664,0.531133034041458840,-0.102036126701333676
1.391813014284446037,0.545286710586503243,-0.069424338437461416
1.199541271413592014,0.454089009374584907,-0.124701029011530046
1.190971961057984974,0.547822767239383501,-0.009489044889799889
1.092794397038227672,0.496554524032944089,-0.022751115174488645
0.926771119108141694,0.518534004071094845,-0.188771049816622488
0.859099250341085363,0.554365404168879472,-0.205793645907315165
0.906217173105137497,0.630697946068349502,-0.118904194809242691
0.769249335945966228,0.323225577944243225,-0.095727011213304333
0.808027643013401908,-0.002476658860592559,-0.190321777355495436
1.061036349783358146,0.123961433298643939,-0.208529030735987941
0.888306063198527673,0.281089618493929883,-0.172882116046988416
0.700495686829567643,0.362665405166895716,-0.248525240779783524
0.880886348779959305,0.494769097534064339,-0.296170455816653910
1.223242148690258935,0.619764339460112335,-0.227188222907185017
1.508263743468193141,0.548153974281899492,-0.121874166963488809
1.410115684877330189,0.328014408003725777,-0.073583989368375638
1.290924910728973751,0.385108823670954503,-0.058129180123156834
1.134717262568492036,0.257353399262813753,-0.022608097737715143
1.213852132448761445,0.214257958172354046,-0.054861545507760345
1.267846949006956159,0.140487823720999550,-0.103824099106931328
1.321078170073460178,0.164364793172636331,-0.078643997528185960
1.069361026144087123,0.097989262065588056,-0.097395925184898841
0.891013243183442660,0.067224042322937896,-0.127806046383993926
0.753633259700829172,0.033805392072340207,-0.071456740216366013
0.626342444958518096,-0.040743500494808411,-0.117912980709030210
0.992350318045926216,0.084789756220228940,-0.110433954019311484
1.153264854338780898,0.347911315412900324,-0.022357104205878036
0.801386364318046329,0.440479839913276605,-0.004817028788733856
0.660850829996581068,0.418301367018711068,0.117342678931762853
0.748150783916765372,0.510601182030729017,0.142890216877402026
0.886248618115773712,0.776629418878507560,-0.086027916001650370
1.089327680669862186,0.886687678454446848,-0.236348737851873186
1.353450912648691995,0.675555703865350021,-0.250665903059266282
1.362832523491183334,0.548229331093462613,-0.168419898209648700
1.483385150896461280,0.491305346308822333,-0.027521843728731885
1.556670856261994196,0.493210917185481212,0.055414225564618093
1.533642685379501103,0.545164292364089254,0.026460143110190747
1.503127383821645235,0.615707038666654549,0.005685907375536320
1.340353506047825549,0.705481711677721002,0.004328664968455598
1.439669973855135288,0.801818179533625108,0.009415457441007271
1.306893723108862204,0.809753897428790781,0.004131701426355204
1.030033852820042783,0.693984298829379953,0.026251929460331187
1.092902898509003684,0.628005038934646986,0.047317356167037201
0.827012213930702123,0.459983905111164493,0.102398700970055559
0.358613304762956719,0.264339724252526609,0.118630282044736413
0.437452162615782847,0.206232006666439344,0.098702541318061027
0.784527529331884743,0.256134408285723425,0.015428435569505008
1.021433462886511601,0.622179300485890208,-0.278345753585988287
1.148222241991840642,0.869284188644483424,-0.359270060676693981
1.155854012608119596,0.809531031528845979,-0.223490026062091257
1.178307085295555723,0.870223581679178904,-0.145062642609391251
1.336129440942124047,0.712844360515324404,-0.040958242728366415
1.375625499621589976,0.518668884007033704,0.004462796243186894
1.393479198907462635,0.444008754442513920,-0.028364105366714368
1.290019648560275956,0.370020301780484728,-0.115750806852005589
1.346614816886004373,0.386426981837093786,-0.144032974666629149
1.434763308867578413,0.373602707349275809,-0.159720669581961350
1.192069393344664663,0.179855953238079902,-0.137372082843302878
0.962298940174979966,-0.107483311839317100,-0.193168700573949775
1.098042244463470984,-0.141658028516464501,-0.229025991932522821
1.186624755372157836,-0.176890834678686465,-0.125418674669897090
0.839425934805382190,-0.238040109855819720,-0.021585278763896015
0.419389080169571105,0.145685188437929852,0.061456486563210427
0.383632277045192316,0.475105704103648829,0.028540555564067469
0.566550627535945650,0.565940181100304196,-0.064378195984356693
0.571319298667843478,0.483365870173469603,-0.187841661370861251
0.722128439918005349,0.400792447829914134,-0.194812061738987324
0.784389522432215047,0.293555216455754941,-0.116192283651822756
0.868913893370723889,0.273193439890563161,-0.061977453084991627
0.979365472024075090,0.324786753281822327,-0.028035122842370173
1.166110993903523019,0.389489872053920383,-0.063345744673828516
1.287348607045501359,0.411271577058093918,-0.086935466522150284
1.249862862602625802,0.380262843465927314,-0.132553930400058001
1.407930838984038369,0.286559095502355032,-0.197069795986600432
1.430690216517502167,0.508677378290159687,-0.118485394778785058
1.336484850114247225,0.866788622532725483,-0.012008351701730707
1.594185205454151877,0.873204685455739704,-0.046745645519947726
1.719506503991327762,0.733706389744264942,-0.029311056425535463
1.448998820594193271,0.531816843418315699,0.062725026333667180
1.043237988533925131,0.258933074037417721,0.108237677136225258
0.832235103339989402,0.171153343128371993,0.205024595048077657
0.879078299271205288,0.281145775283321186,0.156174292856171737
0.899273562611640376,0.341555768970415174,-0.024614913552879415
0.835708938140857893,0.355034668851098911,0.036547850323742824
0.936972650218729552,0.485309098402494921,0.160996930322642645
0.984141363606283015,0.441442483981337230,0.161373168967168856
0.984470240613420811,0.610358657285331785,0.140966411541613157
1.137017929487234458,0.730572094592872645,0.171233305592910168
1.199913207114643443,0.822239709328155044,0.171878519804382457
1.366884317602641508,0.912693084682687394,0.099389160508668625
1.830532481282296065,0.916808523339165182,0.128188882749131927
1.672624796779137446,0.604990098434621926,0.073005958240760463
1.401107408850769120,0.335181989664019631,-0.205312265262717897
1.633589401340145963,0.314657367001335453,-0.277326925113957790
1.596319973325392771,0.242493817463940969,-0.170756409566640649
1.470862941595016515,0.509668255092888267,-0.134585208524451577
1.262739194109690599,0.557025922783846439,-0.124042359730379734
1.048834698150399314,0.427701178908909685,-0.233032229345244563
0.927512142438721710,0.413396459501580826,-0.242349929813867743
0.829363783621321571,0.365875679140015897,-0.263836613166179734
0.645946370757494948,0.293697785949664114,-0.286102809773514932
0.553255229481665833,0.291381992112935251,-0.282812540330963813
0.500939863628980797,0.256388214777003742,-0.168111429434950083
0.360328993042971668,0.084044337872493546,-0.054324382490739953
0.630713522815969818,0.102068224723984871,-0.056024314145072369
0.690806685296717959,0.096046159168650849,-0.076068455764599557
0.834552521084411136,-0.035677053566559633,-0.280631353858648847
1.134464820714240041,-0.077088075179791021,-0.409667360343935194
1.091463735507606003,0.214795084378064188,-0.232857816745888957
1.251509834615332384,0.594269666535516716,-0.140563220410627687
1.445852674938324256,0.659116243384803013,-0.229291303345399711
1.526685307454801688,0.709828469043304877,-0.356067253579560872
1.470633359084401182,0.558309026681412801,-0.311452512175772134
1.253597171413871836,0.406533174744447001,-0.247694070265762123
1.159561303863123616,0.273015816128081013,0.006426715134780442
1.113635048990057941,0.384426462221497622,-0.059701577818471463
1.089489559741156466,0.267364993585138710,-0.158768981846684781
0.925705878331738230,0.188138277850916358,-0.217895898691277623
0.983562018224825030,0.200958955898787539,-0.089829687802991554
0.850910808522266415,0.006341035350609675,0.081605812125013596
0.815821378761329208,-0.032259083263687025,-0.128567745372727832
0.937240856158695124,0.008264420988084428,-0.189165983513741115
0.933861956519572267,0.135938351726965861,-0.045075952621401294
0.896231859318307067,0.521685209491085766,-0.003898563698114056
0.939673583449289529,0.751861131718393749,0.111904940182990936
0.889854027897237887,0.653131302035606764,0.247138389154888755
0.783542858746392401,0.560470599319004892,0.353077229444821505
0.999361833100916530,0.670912234381702333,0.276925805143051484
1.213679561227981152,0.758703146515791071,0.097883744566309813
1.437292271330432358,0.839362357175393980,0.083486352247307397
1.720281279937203145,0.812826975514507000,0.279338469225454245
1.780864598043309099,0.701635970227076911,0.176913604290709459
1.765428798860519066,0.644758095603964465,-0.033103187105146051
1.665488527862959200,0.597013064081098777,-0.260317322728689127
1.718921512308589472,0.628402899315388397,-0.235128251103491726
1.646487605450881908,0.743065632518359220,-0.116348219694632021
1.424419998931607312,0.741219752204994364,-0.167689426614677284
1.318497803490019216,0.712252462781578832,-0.213912655610613317
1.324973444232377506,0.637379388612889564,-0.164556091042831726
1.080184572129712306,0.503675044282386852,-0.105140640767338645
0.798909466401186097,0.361549898963162142,-0.046056704730726358
0.733719155112304455,0.209694142525363170,-0.124950111176882650
0.502312709261925727,0.158817356268854654,-0.172306750840647865
0.333894403616404434,0.147206495244551538,-0.046269906710270856
0.552596775909950599,0.197704391037528016,-0.068968115549533818
0.987915869995909190,0.373718988713993672,-0.122539769097991913
1.315533723211709916,0.584592049778419498,-0.160576008809777682
1.246745522818211604,0.582845665893262033,-0.189987102269004393
1.233869877824575356,0.710138432323976443,-0.210550709680855819
1.189445169405506153,0.671581015429392969,-0.104011505411710947
1.184577603107987764,0.465062421847735441,-0.026081749826073867
1.330625105598400193,0.389784372993393191,-0.140057293572391300
1.444143632743566386,0.287458060661972326,-0.204976349885020920
1.494471856973846657,0.209888916931666281,-0.200490089160501012
1.249672391826059936,0.102389902375928141,-0.223334224630918288
1.069492799333412902,-0.007224527898768216,-0.220922138954362690
0.859026200827021524,-0.053755257374839785,-0.189918670513818055
0.533784063611980719,-0.016836024463868723,-0.180424100830690964
0.818389552062597780,0.208069680184543165,-0.111858345948167681
1.016239293288324852,0.336999867347678894,0.005217268783133610
0.841334753855323636,0.426467410266829605,-0.000362037400181323
0.841901532711728406,0.430282148460094160,0.053131585213564772
0.949820476080877052,0.414169969342957911,0.004702204129625551
0.996630807032398591,0.370258504689540080,-0.036067047680094472
1.032133468961108802,0.367324791562988751,-0.113925420373959529
1.080483557421064722,0.364787908992873444,-0.105270748383097940
1.194885761313783989,0.401496737717424390,-0.034279578580955747
1.304117453613758304,0.393036460102947349,0.044851030789720331
1.374210482930332766,0.447359449396996345,0.061981267437837342
1.438234371526710520,0.437681832639899238,0.041968479038687341
1.445594088347524675,0.430307939911208692,-0.015572501156503001
1.262301116074337592,0.500813980110730861,-0.000673163716031283
1.292144097524911217,0.689317160209272584,0.069713450679107142
1.304549185790391252,0.828583185962317947,0.139898406797894587
1.056405672507119142,0.717325527336662550,0.207534027059989801
1.247318535384960292,0.654453385880851335,0.118653453335533315
1.376508189629177092,0.526266965230980710,0.082648198152706742
1.168638283112982457,0.419756616299380159,0.134188489692361440
0.840679273547517258,0.178890397406281376,0.225677986808859199
0.655040576093721238,0.410490278524550389,-0.063742287356975735
0.777103554682904263,0.664895025195582856,-0.247557188780448106
0.881363825731887873,0.600059132893262737,-0.102696908274971480
1.109655905061761150,0.699619329791965061,-0.100577841052542152
1.132332326549468471,0.643878126559448649,-0.100430086939313171
1.198028732583571898,0.701798361753322664,-0.136820341102093429
1.194407284577878814,0.712980233807416486,-0.124499077139744715
1.194794872216267567,0.716772546884551054,-0.091578199753121731
1.195900610797588470,0.780555660642257676,-0.161449288130498081
1.211697864784684331,0.784661800013124799,-0.210676038677954730
1.475682390306404912,0.855105379126641418,-0.183583013176357002
1.394562065101135895,0.672920213450306504,-0.147448279510844771
1.216853437041542030,0.401823956414791128,-0.289166589935663132
1.369307877051015865,0.097764451560166624,-0.349819067777437709
1.463118323217195815,-0.016241382405303470,-0.328525240423844289
1.313764597358843655,-0.230053964214818385,-0.165484616677231217
1.040658235447569524,-0.086627419468072786,-0.048456132239497220
0.877748624480549466,0.130823395460466063,0.003792415490023403
0.750335042400993357,0.349083475084101924,-0.034156571587368886
0.684784362152136894,0.482519340031208610,-0.108666243710129937
0.704362356239202958,0.486694965929057033,-0.186658999331955761
0.615829249883149132,0.341827515554599559,-0.191696582375636027
0.653389644077139953,0.218945807408077231,-0.125653420979268543
0.769604058604660524,0.173113994213010713,-0.054725083444495448
0.760265219273556059,0.124083088269867053,-0.050740516188215394
0.817066110982285987,0.125540282156012761,-0.009093290323524423
0.823877261773028780,0.215840403469669678,0.032195678931749315
0.913450076524477517,0.289301959901708483,-0.086252586585000138
1.201203496032734019,0.375273405183711772,-0.153561219573645491
1.289919753610678788,0.497700928721183156,-0.058030467669979630
1.575319329721846628,0.587525266226894161,0.055669704119681210
1.913509474931158527,0.727378082680294247,0.062915803197081607
1.938369455345654302,0.754273918033732560,0.059047678775858259
1.325245498027842306,0.585000124225942608,0.028764923766961312
0.960529488007554888,0.346910642646484746,0.054103576987462362
0.960991725397059016,0.196812513984930271,0.107449151892545114
0.978233201277768694,0.275975550810709236,-0.007520682917185238
0.995618030132891185,0.355156527729392268,-0.106032321545217093
0.974116350676339615,0.455970440634599461,-0.110240804425158531
0.952035913247393895,0.519273844905254855,-0.065119548992264645
0.888943818984699319,0.529068072266228318,0.061871514587925530
0.735554225090742531,0.510235746636875098,0.085179015510647743
0.682042931116659146,0.482579919177781869,0.039421683681553250
0.712320330825248149,0.577138607985946406,-0.013704460623094123
0.937872365190511981,0.736660484247273595,-0.048580412681473367
1.229266432270761156,1.044375869542819579,0.081838086636994739
1.192796137764764675,1.047188487042268745,0.048603635104395006
1.163177491854428203,0.873688613392902602,-0.042337784424962471
1.369488342191524044,0.604815741872928192,-0.040765764209492031
1.389986550827186029,0.503876248317392639,-0.151764654601440008
1.413931962994366298,0.500707165470541726,-0.168012306344745316
1.335012122575716109,0.543829516700357618,-0.111071564302152384
1.285104651190056568,0.606476084399556248,-0.020941137074810035
1.163577659061880931,0.565939125078106731,0.027313453929929399
1.048125153728645342,0.626841520070739011,-0.002451453057693425
0.927547281124885381,0.657555690057388675,-0.065204470838124529
0.908541411968967205,0.694633550615740392,-0.048880615642181886
0.938181643300448065,0.744186805099604443,-0.036227795498747474
1.054515551674767515,0.732064217415503204,-0.055779171754281938
1.126238927370755816,0.685104765542336791,-0.001703251080842491
0.741227171651372085,0.311312897768485364,-0.038387647352260038
0.597090788005392059,0.044932617930486918,-0.039920099260589655
0.386824966138161419,-0.125522305594956668,-0.066632484978844997
0.469664939627320088,-0.146094878251771143,-0.205801459546971099
0.955484515893791131,0.128734764548775721,-0.316430130204259197
1.275872739180697657,0.354485614078092759,-0.305145517765251839
1.420419582852714413,0.459529861743139700,-0.221479102703545178
1.347780553065079712,0.243904509283356358,-0.033074743079149663
1.309605862881628946,0.156652437855492044,0.015874145739318724
1.295239864932191898,0.062470365666224471,0.044456348745831153
1.260754339237765809,-0.013492255816165595,0.019392648059937581
1.234390139331901670,0.090860597686928363,-0.091825463221421211
1.251316991027932257,0.125058565397440924,-0.103985392174248167
1.167070019959631111,0.130479825838621416,-0.080041730970915534
1.042487071715663793,0.146121202849114423,-0.093473938542758428
1.111066875688789368,0.144097698773267419,-0.076410977243031614
1.021405158363766663,0.100575479891189493,-0.060790557676089596
0.994962949155987042,0.036043555252871000,-0.122800068213920324
1.073425799155511395,0.079375254646909518,-0.035664276376056389
0.918706817653425323,0.285812354559307868,0.066017081316088050
0.711830475426427856,0.509688761801433743,0.138453123639548648
0.609225396624437310,0.570987987350502046,0.195201261336652471
0.620288830983272366,0.526235862839405044,0.215827701015873008
0.774933849247672168,0.777745050414329286,0.081669609063095644
0.983163524270766920,0.944201349794241862,-0.113808138694804620
1.253813775024520849,0.740970164163825773,0.135250643295033307
1.337368140574909159,0.529149131923455029,0.205730772102639431
1.322118165651381405,0.468550704594824341,0.028625888046954897
1.405063967573944250,0.560709272708244888,0.017106646340169281
1.526686195090402709,0.740182702574693985,0.014242202450859987
1.722506323408875106,0.760288461470014609,0.234051477644222433
1.826783220091152016,1.010741833404499079,0.333956784113806970
1.673952871332741621,1.517323581539885335,0.189088162694951961
1.320511365129033665,1.256971237541802511,0.189820126234358788
1.091794186663773703,0.718121336962081358,0.104992845116803027
0.712349136696702745,0.652422030446793810,0.220878697187026407
-0.056093746185831919,0.704485487466379290,0.177087866691288509
-0.380495552529759307,0.305613529419140051,-0.225249377887851321
0.538224544250169412,0.035729337053935717,-0.295532845533812982
1.160205204385842848,0.415361098931368911,-0.359597719025422369
1.302691942981744955,0.449015181568310273,-0.292474715586708456
1.421926775607991633,0.174381761101466443,-0.094197267573352506
1.333788576445001706,0.333619491731128759,-0.066026847859535095
1.215971334443018748,0.597198894638842015,-0.066819396762187247
1.304273472217589269,0.730806016385772361,-0.053566170697335783
1.407577789578738914,0.872163584814245940,-0.192398936292330514
1.463138895810352613,0.824796121159600548,-0.142580917638728488
1.308161040534940645,0.426833112233797884,-0.057936491893257898
1.072765170981691885,-0.003474853875302886,-0.319630992777724388
1.137069432712185968,-0.181992398541552358,-0.249289689979100115
0.911335233864997485,-0.187637288133868679,-0.247182082575454515
0.935924447450532049,-0.149543914478067419,-0.316869536653793749
0.997535481792032552,0.182374007132011989,-0.278978016034241438
0.865378774005597817,0.336799426563864190,-0.201831713478189734
0.784441299795682334,0.304793119967152082,-0.144980671900117070
0.764081497390592279,0.296775845736683030,-0.145168833164585093
0.877282427087170635,0.303383876075136671,-0.119473583047921827
0.972157127289788203,0.388336708497820204,-0.126779731024925263
1.191780700871896359,0.465156544669437622,-0.124759250429058402
1.111997082829431882,0.358014821378336456,-0.166711248162093734
1.086040669912232692,0.282312268577011138,-0.138214134770260816
1.239604108949462491,0.263728271059558816,-0.025786367426230642
1.292613667513100806,0.291321308193487893,-0.037632722233080861
1.503893952577244786,0.364160522978522250,-0.056261148374769511
1.418425808189063053,0.350709918498550544,-0.114630893196059389
1.518666150322306230,0.492087700864563271,-0.142406672808192525
1.395363772542898673,0.665532928317982164,-0.032249876285407396
1.224535585906409541,0.841618193875714460,0.163886876291282457
1.467931026738962030,0.780066484430677720,0.083701297824516754
1.585295337430058682,0.681561606494338390,-0.014093827584680634
1.308452693227606822,0.535843700298514691,0.102625148308253547
0.852429967349522144,0.303099296431439125,0.267043159516770268
0.584439079221090729,0.258764650426349885,0.161769259071083610
0.712225095436965105,0.438202137440946771,-0.059094607738524263
0.810913800050149680,0.605592393583005428,-0.346055582049826504
0.836541335960210963,0.512378773080336303,-0.354145938016103667
0.940437878498419644,0.410059282282820570,-0.135268624925243997
1.005257828235279982,0.528174418047072103,0.005302651993247506
1.030665975348944885,0.528932198974136125,0.145412348999303831
1.042324106800038175,0.532924001585762142,0.083806113071970098
1.157651571089559850,0.674575245036473481,-0.063148235883064285
1.477687058241714757,0.765101206679857260,-0.138394775990507285
1.764956955165859931,0.952498613872308275,-0.110983523550887156
1.417125325556753523,0.752345592801785257,-0.114258510441685543
1.121481948172320831,0.425783041545852003,-0.211818880756489941
1.353244802978799344,0.213830558370570994,-0.238766399048982475
1.392990442396984108,0.060868203109446378,-0.292045201912133956
1.211834897988398607,0.067593340729853041,-0.297759016850024372
1.111401398997207357,0.177833834423588771,-0.142203396760791440
1.063966865524533345,0.341872695026018136,-0.080753717224319080
1.031069901438100178,0.472421970923468659,-0.097377481785535860
0.983116706695151166,0.493727562880537929,-0.118353375796541246
0.924883572208796689,0.450909241980767705,-0.197080878325539971
0.833096706361699302,0.332244910202483756,-0.193893806359392074
0.690250199258897079,0.238644877117230536,-0.117079353579860462
0.648785911340799326,0.177591439262313827,-0.064020358796988558
0.739797902137656282,0.116052358969719938,-0.063272324588957263
0.866686876419119900,0.062857834271005969,-0.132140109914263754
1.026554784092806871,0.025536459863137725,-0.163672307789019006
1.159825836981740910,0.194025296031393318,-0.182900888198895245
0.936279157065215584,0.248555093071915562,-0.114888735696839467
1.059160082442562878,0.334187187182185874,-0.146631310241168239
1.554637382455229755,0.507931667171417911,-0.224357169431352144
1.867930322935574372,0.560983063032101992,-0.032274548305661246
1.588582562353871186,0.464024812873314263,0.109154188918155634
1.229973217594789503,0.177222736667671465,0.060444330506281715
1.194182562750750076,0.221302295692998668,-0.022115374315927330
1.207373818669031262,0.270411658209575467,-0.046636848555727299
1.155512469971563538,0.302863242034930646,-0.088207870967780946
1.147208679474539750,0.449043539635066269,-0.104598665974474508
1.040132928092037501,0.322592880989430897,0.017758005288122602
0.761427681962185132,0.308078813417879349,-0.021754744975771581
0.666568620652894572,0.406978185399975601,-0.117128395239912239
0.903240813484301630,0.641960548540511766,-0.032521048029250786
1.034131890142063526,0.757738228603095365,-0.162905242990755983
1.280159161650976651,0.880366130258337320,-0.045408539382668381
1.045149780847775434,0.769541182374926080,0.141656517927550463
0.987285621842574068,0.700562381932651412,0.186334091598708312
1.005221689765139592,0.700788718940454913,-0.068588757999602262
1.279174603213860228,0.737574556311039076,-0.181323250520666224
1.404024358282914164,0.733197992951299282,-0.171992136924569911
1.330860720697186972,0.682638195416437776,-0.090404549702873177
1.443428442020532332,0.621778439477474798,0.070990088494734344
1.515838090419724171,0.612342951308538219,0.088079917991612328
1.503923844293030276,0.671963831572030212,-0.076537798184565922
1.539904382504571734,0.702784194188704303,-0.203730394214492322
1.502425271102942217,0.668032482774889358,-0.237009695979352175
1.347603434431360991,0.607839030131911651,-0.250782471720937705
1.205479038275365511,0.551767445774114185,-0.206839561072542949
1.156964311646389687,0.505614221500218841,-0.083886968911754803
0.935021445944292817,0.473833488660119151,-0.028285780836567995
0.949844734539393110,0.308942724308923666,-0.131167656776112140
0.749334544844012629,0.195058482648632570,-0.137168345431647798
0.240574413302119178,-0.016575396438683287,-0.080167596431656732
0.271498587692971027,-0.034653662913007532,-0.174537943643727517
0.916737400552654957,0.172847992581320081,-0.275589201907332770
1.497118339803567677,0.446483672604700121,-0.163212429532043790
1.433569654452649500,0.471195990973554912,-0.134952602949140466
1.343576086856580254,0.412657010572623384,-0.111121025384253266
1.267867534644123939,0.433314736004688061,-0.078858649509960951
1.193847739215794679,0.360184945959286074,-0.026099815745592652
1.256192477333200053,0.286652455072866186,-0.042074300494160263
1.315217125547098576,0.276752860999103401,-0.173215751363378245
1.313199491755833392,0.201624203172575456,-0.173305451827898527
1.036707309981663938,0.100875851115244206,-0.155281832746443110
1.061141491703333495,-0.067363271679754574,-0.068827261132474282
1.094760866963111035,-0.333002884766358032,-0.015298177754969179
0.911109225071365714,-0.638133500163702627,-0.272300064904314243
1.154063601560646024,-0.053787149215498549,-0.080333173596196586
0.805814865840245753,0.459349430989793805,-0.017102412565274457
0.454378014527836604,0.657203505826142509,0.189796661348127504
0.387761694171674498,0.531779604169043796,0.328969911228455036
0.501169733322122335,0.583339248553085832,0.239511608351941047
0.736141401506153592,0.532368418049857239,-0.379702278239375246
0.724846998565835121,0.565860213933427003,-0.392113074897424585
1.008943620129493901,0.764899239393660335,0.161902233939018786
1.335137450801956893,0.716867683621620566,0.296403425776075424
1.320780758931137555,0.637662007742172521,0.279743529375821032
1.493393924480003410,0.638162757083997834,0.207218206009889272
1.630574817620861650,0.682787915683410573,0.093278668275994694
1.703792905607427910,0.763304990861136901,-0.074678568713810983
1.719055258977847167,0.786063229015081855,-0.243204816462451623
1.784036187106389892,0.802712037659851552,-0.234384366381047177
1.766540870256549045,0.877417017456631476,-0.160411974316899686
1.507539645997443056,0.795961997171609426,-0.043473400054710502
1.576941455866973207,0.703786314882519859,-0.117002320068146495
1.390805184128779182,0.639159441505264159,-0.011744364464469576
0.811155262572389235,0.489564566135132440,0.040572992500081548
0.361208709786650095,0.245541830881581574,0.011665419991169377
0.589616623185984734,0.228654819327756498,-0.076838789262146184
0.931701656267323153,0.364847599556167468,-0.073675886009793218
1.038010152380796969,0.438788928141301493,-0.122033464779911324
1.051607608094702995,0.521643396354651734,-0.204118260446621874
1.055350823653664616,0.634426083558963905,-0.121692728841349046
1.171194576402626586,0.727472435606958845,-0.058863381781665891
1.211519960533171458,0.743457648812410832,-0.103747098752400707
1.280026801052587482,0.782606900774695746,-0.222414920696200280
1.378753917842381771,0.867638189770812529,-0.250257975656723586
1.414969684865818644,0.714637743145288828,-0.245968930127533569
1.477409958598044248,0.607422936887259790,-0.146776406813245885
1.259720376248016249,0.023816426773215611,-0.215091797297005727
1.340366497991802630,-0.225806640611397824,-0.362727618129164708
1.594681320651337941,-0.087973669127853760,-0.265714043168089720
1.291455564159248892,0.013327271476386389,-0.239505840690405924
0.980820986520249627,0.129483575429387682,-0.184549531289052104
0.805550045539102033,0.162748145721874821,-0.058530543367169341
0.716445500765328980,0.280683054639850826,-0.013951262727139591
0.621332898713444437,0.360831657327897182,-0.080545494789437969
0.521095229617572819,0.238173249093352191,-0.110350976697119463
0.511401967854311024,0.166635140964832285,-0.077591476262223125
0.522077814574757326,0.118090703376600839,-0.089885913969625586
0.610692203723172677,0.105324734190720998,-0.052084471294437718
0.712416866224045098,0.126682761165146540,-0.001791501543132274
0.940491243054927595,0.207496673793024916,0.033221532926563969
1.052689688670582546,0.345416183313175029,0.001434233976589783
1.162108591300687221,0.393136453209231462,-0.071606195985054938
1.290641864557485752,0.535229377448639076,-0.090902009801116471
1.259339408606862776,0.564491727155648215,-0.074694639382435452
1.506581619725312127,0.638198511937717705,-0.130031462740516912
1.797521082241280377,0.675495516623979331,-0.143873425196977156
1.774884459001051296,0.708778852926605585,-0.069986206631919026
1.431320352522461592,0.628961750052081658,0.046204249537829055
1.057174914300089918,0.484498385779997986,0.088005709789869338
1.091930220083511260,0.417826409128000287,0.121163915927626833
1.195317107203525797,0.360368831911552612,0.142596695116816830
1.123633628859380673,0.485953243155464565,-0.150028884703504395
1.288105269269408160,0.489986236893359739,-0.243194144760539632
1.214560677086538698,0.431891148459715435,-0.182188272812418034
0.853788745324727372,0.831953577617048801,-0.283745700782467580
0.900028525494130816,1.081198705787453473,0.095411367121943272
0.844177740049782521,1.282429701041431835,0.000481356677333745
1.020453838149224968,1.136573025698716100,-0.125636343697726222
1.304651153324285495,1.064859504986304994,-0.114956915798796314
1.195739932632443381,0.709403201845130726,0.040078399654014149
1.299441744163674084,0.524291907827340697,0.028478133933725919
1.520419650325856464,0.574670919171805794,-0.195797139887740307
1.486206277531260112,0.547411859603104456,-0.340124457589009721
1.424707404437872471,0.497100886858220625,-0.307803944181598899
1.355370938240839873,0.420409731098801809,-0.168608227242936365
1.221491621950617557,0.383281709367728818,-0.161602156400026731
1.080499496540928694,0.376021327481044498,-0.138173685676816871
1.093457110840355018,0.395150987238626406,-0.096898255375631001
1.027488651010787013,0.389610016431699402,-0.253829016022643794
0.792523127563303453,0.334947675965917457,-0.235393194226444252
0.757905828679551918,0.364198844447883696,-0.136930681142873989
0.709429613331550857,0.336769479328682064,-0.067444801456475870
0.798106072662017496,0.481654869796043550,-0.045949022231097127
0.798392791654853884,-0.066519841299363766,-0.174011503055845562
1.001501372681847135,-0.673543496076374204,-0.423758950214411900
1.061717975969258321,-0.120108096792643643,-0.303383508803238722
0.953945045567883398,0.462951987830079903,-0.135098319869270234
1.123854304622279976,0.350800115641147492,-0.170727252523160788
1.641411741837355720,0.633859977276332920,-0.363351228093663714
1.742456764676270309,0.613951062724880314,-0.263733005052748937
1.450420869657598866,0.527847340590731573,-0.225262053625679165
1.379102607912904510,0.376032012028010842,-0.082041488106112281
1.303446433516990188,0.062690069138255033,0.060986221414736030
1.222084246458579049,0.068068690525766362,-0.046699848591916039
1.184891841005775381,0.033352859297759482,-0.047062757993378924
1.061808852022764205,0.112826685321445158,-0.085106014442927314
1.027815455433627845,0.194569243771008621,-0.077100790033534553
0.856935890764573216,0.287880646201370882,-0.094983420086294137
0.824110603165346456,0.418438892145273411,-0.103378086556661683
0.835704978136983079,0.377497020804215044,-0.033372573309119670
1.187776611971655072,0.581520811525305770,-0.017713616015218210
1.486575840421476613,0.724224399508598071,0.083813213694142547
1.136731223538408830,0.730536214407064510,0.138316913229513200
0.890865517830241926,0.709415005080338501,0.189601977867334237
0.970478263993342471,0.700073639733104214,0.108014306761227696
1.163212343358065226,0.742256038584103717,-0.095948059584789830
1.434620642406594371,0.677640613005005332,-0.188230902505833020
1.515952637522682167,0.537077468940594716,-0.130045043636809687
1.450907952914682664,0.475494986343140802,-0.007253744543338399
1.521063352639845601,0.514850549373822353,0.063347689602394647
1.481684414996344623,0.551397091345001700,0.054805059307773574
1.323819888291464020,0.539896019390669779,0.004023809215701420
1.268714086181570666,0.613527118122017878,-0.074564657593290881
1.130152427400017867,0.711397521936986577,-0.096270645719423509
1.081279018108472822,0.837818233347439767,-0.084240404960306742
1.204733355383470927,0.923522087829326210,-0.050150194777841571
1.036817484705834014,0.667819271597605457,-0.039540573941838464
1.117237584611977974,0.515910583464373462,-0.051315503914711749
0.860694058703433074,0.280459692061829302,-0.103185649979992217
0.563786337156831019,0.182918514215748007,-0.126482227547572990
0.543435840830358785,0.189877636295098379,-0.171912488218807780
0.828332394564578522,0.320820909560229184,-0.243317688217768779
1.155452472373809103,0.509168828346374669,-0.269037190932636783
1.273420386904879908,0.545920233458550674,-0.251499320477411470
1.267482620043106412,0.448241797059021341,-0.169360788416398567
1.270762911699135467,0.407066767176254396,-0.128228794974035304
1.302598981299931236,0.400334044770751518,-0.152638353344209499
1.340874853399482980,0.318723763173333452,-0.131805896192026706
1.286553832871522030,0.242297098452161214,-0.120017846687114668
1.230446147133779533,0.102002104531988227,-0.116535140667894097
1.167459293895425354,0.021554453215198895,-0.162426939309359170
1.111043316787712731,0.005170198274719883,-0.113572026267612508
0.816591607294266053,-0.133649164988326685,-0.190371238437596318
1.198403367410016296,-0.007752746724070420,-0.219779800182286406
1.169183588696618648,0.100390208677567080,-0.207592793321283720
0.888920959641062325,0.145985826235098926,-0.148320444366973975
0.754636430295181571,0.206549758639277353,-0.026026227891901760
0.782185665050785350,0.293683070950718383,0.093613879421229756
0.785947492766982614,0.436418550774669456,0.085555212212969023
0.888927579638297938,0.690453439694665994,0.024997590934219310
0.991304362896176405,0.636613259649538299,-0.081116165261527956
0.902494156896452071,0.334067539482483467,-0.094535379127946823
0.979694649257750183,0.321084140669208096,0.021334980679499276
1.236638042147210736,0.421404329673565281,0.073079504152246455
1.464288993096101166,0.498421444201083197,0.071057112189895091
1.621589413981948447,0.524827152093618299,0.010763478148406502
1.455388231800349264,0.505602480931054976,-0.048327516568173315
1.556530862838381379,0.815968196972678639,-0.030677268879068211
1.203117862279590833,0.803518061352052171,0.134860991523033991
1.315500158674576037,0.674842898502634347,0.020535951502726801
1.383850680363623908,0.548841380098703091,-0.069491529901441806
1.208267788235168450,0.555860255407391701,0.101756102357529715
1.025280434294580267,0.483736182495752065,0.128864494295289983
0.868895967726916907,0.547296493019557850,0.016454708986368770
0.971957337390593645,0.643697962379217170,-0.011339052660873334
1.178331244649706955,0.663913510344508850,0.031652128310039961
1.144730095260273695,0.482831284385508819,-0.030532256191400389
1.071371426441031227,0.522098469546981914,-0.249199108728276747
1.079656304554282409,0.518584165243816120,-0.212100975855474772
1.208272447796482796,0.289243157921693639,-0.001354383939926390
1.323406755228055953,0.682512677432153492,-0.020528892417860999
1.244263965340036693,0.770532822428845576,-0.128116291913540764
1.292658211382247568,0.651539761359750891,-0.218313994489273328
1.469388914045971051,0.776101466626319625,-0.200171233089404960
1.037452979829547317,0.277331800341247603,-0.150992325852999043
1.043063555981588841,0.093376377736225369,-0.328030186213522867
1.353452212659206122,0.086163386499550618,-0.284143091094734568
1.164040995339726825,0.100150291267997418,-0.335179651973050219
1.054684162891673216,0.210081381025182340,-0.278444885461214597
0.971918538927092457,0.249382297859916613,-0.188628074322053890
0.909190173175173033,0.296660123716085855,-0.135654043327246787
0.922553987270223863,0.349534889170441121,-0.151941934452971494
0.884758964717412222,0.310999834725943669,-0.209913015513605083
0.866751619638542636,0.239228568055715130,-0.206027034883887517
0.854087344329188203,0.216391810662292988,-0.202046910708628569
0.890066496469861357,0.187311073062915306,-0.144156560066063200
0.879156021390594233,0.074438748060126944,-0.123790042022926872
0.898800345890123586,0.041184595741491803,-0.078391176514274172
0.896476107026293878,-0.022751008805899177,-0.148414755681334970
1.187589814016437595,-0.094406286882416215,-0.269329220748786569
1.243816294043539772,0.323752678081303868,-0.190260730627996116
1.190309946813297159,0.405071558501119311,-0.108372814618976132
1.684739918649356571,0.522527850422393580,-0.132676811567030123
1.875586051783832087,0.568621446799039143,-0.102141235544221401
1.621129163116387106,0.389588809138006975,-0.088111321534317708
1.222312241776153829,0.233228430938434511,-0.067111091040697748
0.980957307122513833,0.204780452959913178,0.062377273657342275
0.947533362427153802,0.309057123734209016,0.066294859160666506
0.941268791142539585,0.406419459995370491,-0.028294834767429843
0.977390009291122075,0.418538388573480857,-0.081447973095843118
0.957993879459443587,0.433104561923230269,-0.040463733766708830
0.804285701376932782,0.391769519131726751,0.015733249380054277
0.716052266825659811,0.412070779216389460,-0.001486478021558454
0.905603863855643287,0.552001226325987693,0.053812679610845147
1.050894103669074209,0.743246089469597138,-0.043457907791933231
1.582020679031299615,1.135767190004647764,0.060367390068897395
1.456715619840525111,1.113880118287684740,0.079806724628191342
1.398807016070542142,0.785765690979782883,-0.007419061269627236
1.552611429325312820,0.549263672867095321,-0.121479946283853640
1.601503450774093507,0.452795754076281032,-0.223994385856503997
1.529923428052518242,0.499773146042351402,-0.261612110348244942
1.442924432903618159,0.531460315404869710,-0.171840107499139472
1.371704079584578295,0.537300831518616295,-0.040810656383957075
1.250163821373910134,0.504249827840463460,-0.017234389605313347
1.135416501127651134,0.460010193240355691,-0.104692725635606054
1.077824495022279283,0.439734954711769876,-0.179278768979824060
1.009462393548144599,0.460504743058440746,-0.229235697526817800
1.039479619472893024,0.540055640394203729,-0.265921585742670719
1.054467146906111319,0.495390942502992038,-0.257602954956120844
0.967301239881722008,0.388132671274058705,-0.221450197313294767
0.973905980776034852,0.189326433009545381,-0.238038584995162367
1.197966375218994406,0.168555196735474561,-0.351270411787854897
0.951568042600620334,0.256341419939266957,-0.234058334993288680
0.578331526324284084,0.277123011521145712,-0.134491685326962318
0.710888787605063133,0.291622735439740044,-0.223815647217720459
1.048375734251341340,0.251281109868714436,-0.204405343875291634
1.390089419040692276,0.222296209591553245,-0.197289394355855463
1.494972305417787917,0.251133433341414469,-0.270388087677233435
1.394332096303629420,0.244886353373588744,-0.242486685472567021
1.257879646924286998,0.406665451596592287,-0.218856388704186583
1.116263318993445441,0.519532465658919529,-0.174747490254224397
1.051683544812321625,0.326571228531378821,-0.056191877775484990
1.101944052559269860,0.226530762801504665,0.009985708491048153
0.996757234146981030,0.227605966462248233,-0.044430738409929026
0.813680977632819102,0.185421231100569489,-0.120150192421976193
0.854889051770951203,0.209004525529968538,-0.086848507483191173
0.753356846570587546,0.180182968028376356,-0.091890407781277800
0.988894494949218994,0.276098794950358495,-0.171995130003360530
1.409199430332609193,0.410667175503993620,0.029342569034609006
1.053419419398601953,0.510638714051007359,0.038626678163752773
1.121899328422130138,0.636295836915858781,0.113409978645505546
1.199394545844367999,0.679506440682794977,0.089452946256904697
1.353645643655670083,0.758347507085624262,-0.020188324248118356
1.400709515349785494,0.733186811726256327,-0.089736994259680666
1.393384650032608585,0.609128129646148042,-0.085806289224317683
1.378556714920204485,0.492425400201826013,-0.040792800175462843
1.316631742907453662,0.419598255225113848,0.012073548319715039
1.264702677726654123,0.429578517050900721,0.032193851449674633
1.172372591924228491,0.446026947577899791,0.019048349826657318
1.149725375638877889,0.505515613655290630,0.010675982645805108
1.017547781988738187,0.539732906720063133,-0.006920025342538730
1.132782284596445699,0.632703013373215772,-0.014038012055074151
1.216248434086689256,0.754877164431439485,-0.058437765939448633
1.082577514216839454,0.721519030661370908,-0.039083562937039115
1.253717252669734661,0.643215419703410118,-0.037641188973073961
1.317487600523518321,0.614787033652263171,-0.028874559170381682
0.943667379530947037,0.489083408720681290,-0.007623419029334440
0.820740022864875463,0.429652159361949504,-0.062254979276340619
0.908191649098124332,0.405509250944666166,-0.123216168761021719
1.112056479974111500,0.496946806900110061,-0.125435650092088208
1.201223094929935620,0.536663257635375368,-0.186320594181927091
1.165957047883988906,0.415677261735780790,-0.162063526601437358
1.172055694033080187,0.310806544715192534,-0.063368253674368408
1.158310925340886754,0.250396488362054415,-0.067662077822218836
1.230983420561290176,0.274688165796987183,-0.124593765933949926
1.357469854824466582,0.337904969364992425,-0.135754667146908481
1.329291071472967323,0.333460304739627289,-0.119551823693658382
1.165507390063548865,0.254233589005404936,-0.178678740538251224
1.123514834570021215,0.208089272111917439,-0.232580080843515419
0.952030279990124351,0.106243291277712537,-0.180712760088205943
0.719083089891345395,-0.117445136894123309,-0.335218147757804730
0.940257413357911243,-0.096992008029941013,-0.444321928493189633
0.740063521100604693,0.269581725005692774,-0.507459735542549861
0.557326335307799292,0.441643792789217171,-0.278518590356498674
0.641914363621400086,0.365132863876073965,-0.043330877139374370
0.804729026382663859,0.384337383767142216,0.089786162151245436
0.809210292008296639,0.545881938187081306,0.106437214331662505
0.945144466404255423,0.718044202983959989,-0.081447553673794013
1.195460259055766139,0.634088384221701218,-0.223306601474078714
1.266453904023735033,0.421906401610702475,-0.206423124987802270
1.322077380663937429,0.359571511692689638,-0.103133908836584187
1.428521210639709604,0.377372657976324299,0.037710493134440110
1.489539534412894550,0.375210180846515029,0.112305464582905246
1.342884768305170562,0.165075512688849207,0.110804449779362629
1.316848758893015559,0.134288693747304122,-0.008768382185378693
1.245012222164937787,0.316414728204465645,-0.029802287902887879
0.920571792391659871,0.345946675983112240,0.094890685005676614
1.164124839021083879,0.408364010819707635,0.113566451151957098
1.516586733531516407,0.634899488749400720,0.104565024312666899
1.359152265749874022,0.623452237073780946,0.103158362765690209
1.088301838810034505,0.605370044920351291,0.051369156829502542
0.844586827048961597,0.512981977371212983,0.106719393315057157
0.873332389256865960,0.521241380189842785,0.144010172475553144
1.001229880207424650,0.678229970321001518,0.005410376435081648
1.038589897093157299,0.607736496607878207,-0.113638378887494673
1.098091035519018543,0.571689878061289125,-0.109031106420282242
1.051092207270863277,0.600602521288757352,-0.043592500430918543
1.083127367213414294,0.582663290534439549,-0.010411827234826060
1.258331578451196364,0.658364458074409020,-0.017014665409443602
1.458968195261159284,0.629596161507408270,-0.019377667483742519
1.502341615499746430,0.634327742287150054,-0.142415433143620013
1.508228891964555896,0.679586549090698377,-0.068263891803661450
1.111432277452959028,0.617074202849121511,-0.104755222365335868
0.970962185908356035,0.527111718206683344,-0.229513349544781503
1.134370559021912195,0.463623105388449697,-0.236353810065967951
1.201954812181897925,0.416549316756042010,-0.194657374772405550
1.084576248668342568,0.391103090503653217,-0.179265397794555859
1.072176107146703083,0.360811772629516470,-0.121805106075228833
0.998174923875609688,0.317634775203753383,-0.159530471124394113
0.965700398931202519,0.320543789369539645,-0.196843633458815281
1.042330152432221047,0.326208004316115852,-0.204387319897977759
1.034016069116613146,0.325974845774407218,-0.233260839703156503
1.047843107341134061,0.360188542399232869,-0.138478331718546510
1.007755324833318866,0.351720679999659724,-0.089471095655935029
0.946324168223263040,0.323881029254344033,-0.118841907790537424
0.874672769241018666,0.198230665257353639,-0.094911869425702483
0.743340053874930962,-0.022832565141202518,-0.153886672960455051
0.938816451910732486,0.049643488094612970,-0.135627510667734902
0.959438701806132110,0.162923887544924428,0.033346903865867791
1.097508917995824174,0.211404149546635833,0.009931930154540903
1.699258875878361774,0.459085473097775865,-0.120266056851185715
1.949713361942970957,0.641764691914119112,-0.142556422172315816
1.481724312348187578,0.630022050715747239,-0.183744599839108208
1.144719802441689804,0.336417828243664563,-0.043014980989885578
1.086113933592479652,0.068520726622270434,0.067293509420690706
1.007852846972081773,0.032701893010884706,-0.019833312370721206
0.945257241149454086,0.106202988734722503,-0.032660670940125945
0.911335521047524022,0.187954517230738000,-0.016426348439883935
0.844118956402188036,0.250049552405225195,-0.062219392685966886
0.711108763810523015,0.400624353458004789,-0.071483105107058256
0.738761553293061701,0.510233472792240073,-0.009419774290515368
0.917788975915663663,0.582265634060768367,-0.028334906381029590
1.111092107843260512,0.718518104852473360,0.006422859244628087
1.375935464244954609,0.830251050607998087,0.004763376683739612
1.558709075690426715,0.861166487295697669,0.080469375626108744
1.224514700042704574,0.721410067508634789,0.069144565746886918
1.117778818043363653,0.666134292776256354,0.010546294452094915
1.217585441476030983,0.657301820900064282,-0.066747636390571033
1.254242946312158047,0.710669750911148812,-0.185684224190292096
1.286137426317667920,0.711431954195394733,-0.226543008695712755
1.363930242960389894,0.555854322456765693,-0.065547202027581131
1.310215799536312176,0.460784528998967879,0.073769442769364119
1.320202400289645528,0.528615539491647524,0.086265496810912626
1.341560426545246987,0.600402472410145105,0.004238922561730420
1.191840098016576421,0.604088530191211226,-0.083483652359052876
1.143913435438612680,0.610422210861687020,-0.055102897917866864
1.054798597846255737,0.581943663637818687,-0.023006342076322302
0.924947229583888419,0.394760089632816336,-0.016107995675246803
0.808072087778183401,0.256658968005034738,-0.058418417786519003
0.705710256900203059,0.190295506706308626,-0.042932423089742655
0.996684270693271368,0.268778722500380152,-0.180161521653455392
1.072868026151187371,0.263155698680073158,-0.204176859343994432
0.834085924360130182,0.208419386664084050,-0.161089581518850361
0.974089131997925572,0.166886506172559290,-0.147545416135176771
1.272763619630570275,0.339524946682586370,-0.152960981421048081
1.491700620282937262,0.551439605066582628,-0.183731270596044910
1.366853538251254996,0.574535542557790269,-0.250643645711955854
1.273599578122895926,0.545942658574680717,-0.230926575250288368
1.194666771848290177,0.423932179531184505,-0.128887296486365960
1.111981143709567688,0.346781402890165402,-0.133808310868374802
1.227048734441785971,0.300806068951866512,-0.194545542787189607
1.184340701042697619,0.213390325509274781,-0.203236178848269111
1.156773840869823822,0.227741280410219654,-0.174667263142615076
1.005245561936764176,0.118886842241178251,-0.122629721215741644
0.924411642453783378,0.109356342667260339,-0.123355456134257593
0.746038614294656899,0.052381308126619675,-0.075620540632866967
0.677057956600649713,0.058098454768628870,-0.150282703545312479
1.140147947945077567,0.317530297074243295,-0.047187793395043462
1.023906601921669601,0.449869981171876321,0.075334991495735776
0.906385672173667278,0.555842874658608266,0.131993596497138987
1.014373618992650661,0.521020291456456341,0.149374575023863643
1.089176909036409402,0.485274044133921945,0.059490572420722559
1.101622194880269801,0.530546243341104118,-0.039097269659946615
1.148459057996776611,0.471662867401092922,-0.030509873017475229
1.244798179443284525,0.447824877897134377,0.003235242029816366
1.329380960786507249,0.434958027021691285,0.041000846461401036
1.369466070256950996,0.424706515289796693,0.049574871918604206
1.342751407922804452,0.484089814654398209,0.037052117448724178
1.311406480687332232,0.517090657159829714,0.036805776708932723
1.241339683309205633,0.620414542495796084,-0.000744672434418034
1.337516539397527682,0.739224606195903466,0.037249584297283499
1.497418298790875069,0.987244188428426983,0.055361160245594322
1.350181801446848073,0.893498423421350330,0.090994284327276520
1.263687914303203819,0.699813011707918764,0.007757802362193473
1.212701635832110991,0.612168594746844374,-0.025691804458640166
0.852765576502271250,0.569355318214420980,-0.053609067620906503
0.612241953823653540,0.465731558332476536,-0.059954683642796068
0.703328294145088462,0.422920822217802528,-0.108558812863730175
1.019677289845589918,0.520876708047179893,-0.167374024986625847
1.186388226549748293,0.596322291929310633,-0.223423128193545262
1.242883800152416951,0.567790813010009443,-0.124208095878717686
1.311115814734631790,0.539517128927137768,-0.066031039287326745
1.309196089369021099,0.622044315777077195,-0.078311854156231514
1.291337044008405099,0.659265697078661450,0.069677570493299035
1.304914900825109303,0.580730312840347929,0.020352149434870070
1.528141709586577246,0.544879524722259312,-0.142272205995821938
1.433401455610657127,0.373432276466687307,-0.316073533308097010
1.478969727378593113,0.190440820525037441,-0.533898501686835059
1.330548195184826366,-0.094791110296574166,-0.506687373636925620
0.990715724480111359,-0.167057256024046252,-0.448055795813066982
1.034446827597291119,0.081873920520537560,-0.356917161088379675
1.030834286339313177,0.179568148500424046,-0.147030225655053970
0.735742035873947597,0.221178722314191001,0.072561698073177236
0.493286408487192518,0.339005164757507527,0.086981767161539186
0.620685137291215439,0.342031552778361114,-0.097026116087266523
0.681905623774429093,0.275845981815231511,-0.265229945470093098
0.616664521862046011,0.244189381698060259,-0.257610139462703114
0.668985134685109228,0.215539080996291710,-0.174889141573177226
0.778093373134409516,0.195831929823965523,-0.075199242045056083
0.941845176304099363,0.252591808581845767,0.049733549386974621
0.967330345979713790,0.290797307818297324,0.082909821444250908
1.125011721462703562,0.324738306609615335,0.043197902676337455
1.269735482646267011,0.339549645643351550,-0.037789446392761869
1.268218297298943531,0.305665504226571738,-0.107777145374014560
1.394173790949318370,0.365072054624538400,-0.168317120155294597
1.465868647956378279,0.618420985655131261,-0.118068623156405095
1.593303802413067904,0.824424878147208662,0.002570637723209560
2.002998333852874069,0.939753684541202672,-0.030715060431360817
2.040339738581371520,0.839307418208440348,-0.059279616940403568
1.451328405532765986,0.633191196228642283,0.017586082461098697
0.784557721274207531,0.391318930962622658,0.064928646707133761
0.687714491606420730,0.223755970093340417,0.100937967491137245
0.820926147350675040,0.253312820739822420,0.040433789011255494
0.871696109393645391,0.382112053646124661,-0.078305583593135733
0.915158131979269318,0.529523082792514366,-0.168292364250630933
0.833449142269913623,0.640088584005025885,-0.177139514760366878
0.848038089688719632,0.689372862427417243,-0.041193576228606602
0.828446829519160932,0.692683192172865558,0.012120855167123509
0.970012366826500938,0.700015334431166036,0.054525169170707620
1.132386377619405415,0.745371363818286614,0.056008034170321623
1.431398361824376853,0.797846528193494220,-0.003004351205699002
1.528288022780888156,0.939208644311237850,0.047360462801632475
1.187659490935690343,0.739149746062417012,-0.054592024692150437
1.313229383471619327,0.509427511766083474,-0.193582101637694931
1.453321893013890920,0.366419334108624761,-0.320017861181957630
1.448700934191182732,0.355013273559274201,-0.352983546858635866
1.341283726232479045,0.371188243001574658,-0.246950479138751927
1.172634452005474337,0.348317053349744332,-0.112697991987203733
1.065636709924887571,0.390751172845521411,-0.039549921468134686
0.933559997964311328,0.428724898801620291,-0.057141444433252510
0.872922628788268762,0.438422666830212471,-0.111154700608142504
0.828151517049156904,0.433516170144656154,-0.148584347719825260
0.847935234519224368,0.422742309872041200,-0.156647709662336571
0.890538726451411855,0.356245186459813901,-0.148105121309920401
0.878052655620107481,0.201993794350496997,-0.181277076112790314
0.947550001104457418,0.076135796689798238,-0.139638988063371022
0.862576959085474382,0.066490960356639039,-0.152744208361764056
0.959221398638043565,0.072641643658127489,-0.176566899764609042
1.058624195085920539,0.221402226133238650,-0.323655631647604192
0.845672079097479990,0.385021005145866735,-0.300701776484458450
0.835946638867952507,0.463634845957613395,-0.271913262409549439
1.085704559410774150,0.462376644927882496,-0.269700261352603277
1.460329160882479771,0.599412358858607552,-0.233334259788027770
1.639543694730847267,0.626542241337033734,-0.091835799385693903
1.393866786545851388,0.447801067519648488,0.004556772019908622
1.233988586053580638,0.338708985785672434,0.023606245096178695
1.134640240006542511,0.219905680953426191,0.084325327211064893
0.979823749409704292,0.197150976573384040,-0.044609971570149919
1.065329118112356976,0.270507166292633550,-0.167208624375927206
1.064070720478005549,0.191729716132203548,-0.068553632773482545
0.964921164546185040,0.234338688867751055,-0.020021180039754841
0.843351400906622750,0.370159008261332689,-0.057997161140913037
0.819716253589344745,0.512291471792539199,0.028327931990370158
0.668340633709315290,0.418431370026221383,0.051581570692175296
0.929347512643697082,0.541319277696484025,0.037556057821087799
1.258718766758682994,0.733692730767516621,0.258713982854923141
1.062140289918897862,0.747589997737487244,0.310469471625016646
1.072095411763405171,0.721418211637851692,0.145963629376259285
1.268409754815475354,0.714975505148595758,0.040727973062097696
1.341326484699854937,0.743041555567758860,0.000258966155291110
1.456364870229716502,0.693318758784585709,-0.052253652695900460
1.577067882981555647,0.561133776655228012,-0.125366010797981042
1.590333788650952096,0.456352697433115961,-0.129462787519321249
1.498020928934893803,0.442852820363702160,-0.048009541283380378
1.477928920094856435,0.577537419616011016,0.005426027681657007
1.313628550895095115,0.618451554900478206,-0.020676814299909620
1.221897122188802642,0.661181560597083995,-0.046134567896618711
1.097779084371711011,0.545444183077490430,-0.063802462083193498
1.057976720846218077,0.578193926948309289,-0.109380518809862173
1.049744907062937660,0.551764408678288132,-0.047765354778281338
1.006519199133540488,0.453052456422361194,-0.081156740181586626
1.163549153416963522,0.318036916700650540,-0.137492842932765980
1.022501290639932225,0.322000983255685380,-0.155196407594124314
0.525940523980518049,0.264582616091878275,-0.097940096154660303
0.201116865903628234,0.196323939224301192,-0.179055347877600052
0.446640128295627270,0.228633716806938198,-0.304388840263386251
0.993686724982193348,0.332451984522071364,-0.258297546365284181
1.339346774780500793,0.483663737447926956,-0.353830041866614875
1.390270983069542332,0.413656794755759893,-0.304074771595972126
1.376187331734153974,0.413508914321389587,-0.069688828981181478
1.415523497866267855,0.553319651065241391,-0.147376770792458034
1.307184101879036220,0.411735620296876048,-0.123787216712955908
1.361738764025852033,0.518141987777043234,-0.201372170758853775
1.334951738691070311,0.273460471346559209,-0.210071986577409886
1.250934749464286400,0.158705000583241995,-0.252068792600500413
1.247125104388496331,-0.017730734705222302,-0.145301313511082886
0.858033623277790314,-0.252704953716541447,-0.153089597092371993
0.643389390954422269,-0.318073879106548107,-0.080998901557314415
0.761676275960938343,0.217854874833020573,-0.178179411015728345
0.764006847639477127,0.450666287475371963,-0.165593530683044832
0.558653637287620852,0.400628012563995661,0.001221409476889478
0.449586484052301782,0.356695570721847766,0.103068167779732572
0.481471958205730854,0.169862591779665451,0.177228343628503870
0.472314682903476557,0.312192271000728439,0.074427533644667240
0.610830596909733847,0.544578557685931774,-0.002292649762708278
0.926064547950296690,0.563774933447783178,0.054005325898539173
1.105300366993271499,0.639576982677315997,0.047438325967524828
1.160884045385995655,0.599699959689193207,0.076692569440455785
1.371949300988520415,0.672512264334871546,0.033376849026219402
1.526181786642586413,0.721400538118062040,0.014219777334729920
1.710812452818543550,0.857375000135798260,-0.021041467299037366
1.768364660676437383,0.900108105594274233,-0.020490396633106468
1.856782632520469267,0.917268018888677150,-0.097860447043999904
1.761041768839192168,1.038923543178215336,0.098889956812760471
1.644416795181270041,1.145008562245597883,0.258412287949779218
1.457845517775997468,0.971353160710721197,0.186650407170246196
0.886667097253925007,0.671451509099959321,-0.176637737407717238
0.314325514485783886,0.431708877873766994,-0.395880743267805868
0.136365619390065557,0.232117185291642603,-0.323593126132852849
0.378031119120144865,0.226909758037910803,-0.313227188495489861
0.784212017511604520,0.180815105639067886,-0.252071114604012492
1.028248586725140079,0.141806478565215499,-0.328115233885997448
1.158445071341046351,0.336520858445774673,-0.318546414058922478
1.184993709435304687,0.168546352021110707,0.010666551235099065
1.252341747043428821,0.173856312798875978,-0.136843479235706972
1.164087812915342468,0.550624078181701337,-0.330634414871313564
1.256011398695606518,0.673049327874537640,-0.329702452768810828
1.270728159299863158,0.639582168285688812,-0.387203151639376852
1.445044334455314994,0.670246506338775805,-0.356828868683884970
1.589591178127331528,0.775290754003822746,-0.273162453622178281
1.381219536200692266,0.668717614747057931,-0.279225848718468284
1.185916696125637104,0.183233432999830220,-0.392505476880006643
1.496326251710970556,-0.251982023150980172,-0.414854944404968229
1.581194452036515763,-0.223631267756031232,-0.471674632762663693
1.367816237128711254,-0.082528660975231427,-0.428174942511750978
1.356584105492616654,-0.165087117655664778,-0.074529909847015352
1.060096737459732763,-0.206014911916880261,0.239597971415009880
0.652846625243983958,0.080356957496115738,0.240375498204160321
0.569452937858740849,0.363330448533613404,-0.031632318387958040
0.521611617181378495,0.290651183991271433,-0.213151912507570818
0.548936915727647579,0.291245230237563879,-0.315764770937964012
0.599193463470721221,0.213667116460805856,-0.319507608304293311
0.744628643451605510,0.191129407696126685,-0.203041453425270940
0.797054097968106778,0.143773187932568353,-0.050395546879656555
0.972789249818690305,0.223284608642576432,-0.007619311485952622
1.061168710381747315,0.221720662782285582,-0.031522649422456042
1.271030018750759272,0.245712794910398769,-0.062553028002356736
1.292806124813609570,0.283857777666321254,0.007618347220137953
1.420265537728815364,0.384634425124364465,-0.007612252805985095
1.796784718472014930,0.514015963707795343,-0.193405031497187990
1.861616647324864537,0.665826869913334285,-0.155657115505277915
1.523464614065624723,0.616233872230600999,0.026437843820675412
1.120970807578893114,0.309661028610232703,0.088404163839501046
1.009276770411054569,0.190523683546714589,0.120213887905605304
1.045326312072430985,0.202633642078372866,0.058831651486342784
1.021157950435881645,0.250700518692099972,-0.089448838308624601
0.991315655498737125,0.366253184342192006,-0.171887489445936209
0.950196183707641473,0.485349338279440878,-0.172138189382338935
0.887750563900672640,0.555125396274534388,-0.156168189656997330
0.914166240943466879,0.634629232199446336,-0.143515327571358015
1.005784508617669548,0.727065809086835713,-0.085015559018718656
1.006728282067341995,0.760878190131999199,-0.080860644764259915
1.227217319570670151,0.875244415123976549,-0.095253510117831411
1.298625770855441397,0.955938680052152545,-0.008144544534913728
1.075755070823536164,0.901578984655060256,0.010398791992095400
1.152117030759501892,0.764541326118858500,-0.050768624676572491
1.450890426601777916,0.678062079856162403,-0.171629353349721736
1.569517094931101031,0.635872300127136914,-0.298159046728501298
1.573493265595488966,0.474578844341810469,-0.269478382922041126
1.485293296476984937,0.303546429401622631,-0.155225438810989436
1.320919864719148906,0.284550494423585987,-0.004474432210913537
1.251677346943896429,0.387977535293750730,0.052609746690502009
1.102533103350247901,0.410454727577900746,-0.026861305023301984
1.014425795687020404,0.460722235351880394,-0.122221584102174430
1.001992488959149163,0.449145806585985352,-0.126457102948086680
0.920813453122629300,0.432084501136510646,-0.143650004094753148
0.939285708628374238,0.372477013276652502,-0.151771671339202607
0.934756325416611578,0.349850989308808924,-0.139490772585888045
0.867820133905392255,0.243106096574143893,-0.094929725634196716
0.975341196817568146,0.076788148238028875,-0.188762708903244120
0.898021210609471154,0.056062321540338945,-0.214153354920382649
0.719857565610683592,0.134294234792727563,-0.096345483054240164
0.789263035257550927,0.192274986467130621,-0.169730840382238818
1.064810156615545012,0.300392683563882212,-0.319411058870830100
1.415989794364011845,0.481841996751206481,-0.336695404079681682
1.482104280205364111,0.506120281782505343,-0.220887708770785063
1.313565493973078091,0.329363135415212116,-0.062095975055352477
1.218127974917930123,0.218133212846147728,-0.038363026059232655
1.184173389836305823,0.145980844533796256,-0.014047653176804746
1.172839488875046854,0.029311721430647371,-0.030716561565716040
1.153195164375517390,0.062565873749282519,-0.076115427074368747
0.998871103110505976,0.024897563384585136,-0.102204939812872056
0.870523353886432427,0.051702872356268068,-0.119774079604064734
0.888257259098969021,0.115952303197391804,-0.131898128371083584
0.804147994703800273,0.256571541385149537,-0.046110608893848340
0.783473267887493718,0.376207983956022840,-0.013265725248838112
1.016077027930138987,0.479647920551744766,0.009466410467543544
0.916800058143769969,0.533472371682559343,0.008637729725853832
0.638921764654162727,0.537780833776673850,0.006178345986911315
0.742953439932497406,0.653022772894903181,0.031896147046319358
1.067040434013584171,0.732420682762905173,-0.006297068478376886
1.363254263075769801,0.664743814894380058,-0.016078386052534480
1.502918987401272499,0.611937150705650135,-0.006662224783963559
1.594751297797128098,0.572963577900370780,0.018800013835971543
1.700162451749654080,0.586891680688802708,0.052661655602729666
1.722320898480514950,0.692473054559559764,-0.041668200573692277
1.661787084031407513,0.724646629610946058,-0.153258233245170905
1.608464287353958300,0.711989623577802377,-0.223684919253909070
1.457247959568205964,0.629380880392559683,-0.216876021664124369
1.278975813098642611,0.576162278743245326,-0.169136621139507726
1.301763409094497170,0.670590964543899548,-0.156501657204567546
1.162389350721695136,0.700971156965321529,-0.063081002476878992
1.135424120908863355,0.587704275250732211,-0.034628739317306222
1.166669852752178160,0.438229314153417204,-0.149692969325807390
0.978234587348636886,0.335876651026760953,-0.192603629589677000
0.703750733287114461,0.295280560486138210,-0.129248210636934535
0.497813517992485854,0.271375854977910280,-0.110525640949704518
0.732902495290643219,0.337285069001541316,-0.149520752903349124
1.077974481037938581,0.436009916983025603,-0.150481410685077727
1.163447971500862987,0.486899269725932948,-0.207274188903417145
1.204759600365930217,0.532958371178126167,-0.231549280461220724
1.164727555225457012,0.513266060336833974,-0.141410009014041077
1.216221215408275214,0.465793229969399258,-0.095742377649466873
1.222822983038678979,0.420886403490026872,-0.124526364758944991
1.330491058702605311,0.404742829210308575,-0.201757589160856565
1.390727574157766266,0.398738703747878620,-0.205343534598685262
1.354959791701374705,0.277689917523119723,-0.238690153654140230
1.238131081184394189,0.113387951143799653,-0.194626440974077469
0.908722602754936770,-0.138891087166510746,-0.234815968380845674
0.976074600366935829,-0.156043478341861608,-0.312405575218789200
1.147550835608180719,0.062263166014548656,-0.261305972362079919
0.998858823767979187,0.163820578859906668,-0.069158439833715793
0.839474039347501200,0.171251950973300204,0.110461643490517750
0.691654523800668053,0.235076815201396727,0.055727221304747637
0.819011768059807355,0.373278755852697430,-0.087009548897278549
0.843087666449809925,0.306077609126074290,-0.354285099562724859
0.836069105978660243,0.343444659683437681,-0.350197376772246494
0.959961422184646862,0.384277630537804060,-0.126891730778960876
1.016174249842364707,0.333247919479578547,0.009327332805332218
1.153239609140298993,0.321701500614909819,0.055787932494607687
1.335296455713707475,0.352527236838089064,0.049202950528484377
1.452235654225406458,0.362943246501946259,0.029678484412305993
1.359010899299404107,0.338097825363711024,0.041170941806350260
1.396868691591706790,0.290129493928867999,-0.090194550513143845
1.452243673337521024,0.419101368896349635,-0.143065300147137919
1.514617603613272578,0.897526932136019528,-0.006285524775183346
1.582061863349645936,1.173210423290809157,-0.050680583925307263
1.584423926981021413,0.951814041244260389,-0.022071680490463305
1.381946795013512475,0.541519159136177985,0.197909349761103387
0.807872898332063438,0.166782650053214049,0.196575982472383226
0.604325364678127031,0.139029537344504350,0.038404296426731696
0.833692690420461013,0.339807111240622739,-0.148624796813269205
0.860751868655072250,0.633192189584795617,-0.259188598010088977
0.830298637279267671,0.861386295540602420,-0.296268497194552505
0.707183770056528105,0.918393284587945780,-0.268505879056663066
0.860698104767662064,0.907290757690564220,-0.184870984984153192
0.978435350943786641,0.760163048258604479,-0.089340610560331546
1.241960912566449249,0.654186558331925627,-0.033620699588780889
1.243051012254443588,0.534117467684852132,-0.000811989725013145
1.153674713911743366,0.531812855073166335,-0.079776862947351285
1.379334263007816697,0.691348186404171616,-0.102309167869456652
1.242223759387661275,0.687913723935794974,-0.107642217197389964
1.020802927550650274,0.573430888339941269,-0.200227627024858634
1.277068367075558708,0.519766450117863266,-0.214463935987568771
1.575036983107797939,0.493491074471996805,-0.150134035488597023
1.591771677729856949,0.362533786793067303,-0.137768172947217632
1.313908636846685019,0.074019821626719273,-0.161078457237705919
1.162875460282823958,-0.031028848395509595,-0.063776390787935622
0.958708971078112704,-0.002298643192907882,-0.003845540321295196
0.806836262304942320,0.185371958511127449,0.019672798635254556
0.766474739704256836,0.342001046199058190,-0.009334894386860398
0.694188545155738912,0.362683407925843859,-0.046984014041183450
0.667118473649469190,0.268122445273044241,-0.088456659537699184
0.685711509968516486,0.201042456839567507,-0.059556355419779092
0.823238806429417602,0.212016695229953117,-0.029527041772846027
0.868169210262806246,0.228174550496584583,-0.008542135773183704
1.033949639599784698,0.262321797690255099,-0.044067829008466140
1.220470825938995807,0.312021610013177575,-0.058823645705705425
1.074185721825853701,0.379782308061641038,0.051028378948735346
1.032607286135699853,0.322458392958694606,0.079404564482285542
1.298984466562021822,0.235154153086588408,-0.058201066321387780
1.572391487018042655,0.388333378630987769,-0.129686870911802282
1.550600428575293899,0.470392037218919035,-0.109230484635326058
1.225872306113224619,0.368451044979732800,-0.075178728295410516
1.075751024759307173,0.274747919026325338,0.092084126996256385
0.961935498846731352,0.230624895030093841,0.111604066147003855
1.078289306344790033,0.207273373881047551,0.129070176230612954
1.069822563976151608,0.192045878936615455,0.128980559650502508
0.913841924393278493,0.098013135109118049,0.086365575381910489
0.666333005554107682,0.114124362976931015,-0.166781139109430349
0.850589049947631404,0.411439342190844881,-0.280061797851150096
1.089432522363300127,0.867981759392657204,-0.166423829195784662
1.017525596114519315,1.008917097718782685,-0.068185147851465969
1.202399810441023620,0.844610086972115814,-0.074931674538135581
1.230825801720407897,0.698929712796570457,-0.062476237358850668
1.022253383154608120,0.716280767589177692,-0.010823778296340722
1.151365414383800800,0.895884200463136993,-0.079449330425237580
1.390632025498935276,0.980631610400703346,-0.159531669473395143
1.556610558437702574,0.872135289413534021,-0.195191955347662871
1.478215725148046999,0.678656126102454849,-0.274242211780114931
1.495830436740321900,0.536577545516004561,-0.126109685809401045
1.459253914470018731,0.498194981861191544,-0.044186099325597521
1.364266053235311249,0.548408732022503176,-0.003837936392663832
1.336128454202158311,0.581407300683299488,-0.098683066933618391
1.255525503300660928,0.583137129736908899,-0.107624444873305553
1.173842059016324546,0.547293659830802026,-0.124839771136102090
0.962783436455046382,0.470738377363475402,-0.069184888608817857
0.835828431987656884,0.388743894362064191,-0.053931863466564735
0.727831179090055569,0.408590081254396775,-0.026070742586522609
0.517061935514974480,0.350790053104345967,0.004919270784343961
0.628178901007824475,0.319699203832755297,-0.092866800693991586
0.685415197714535851,0.358648966260548707,-0.117007509323834427
0.390928936943989169,0.178643391889692194,-0.070419585386565731
0.574950653205229312,0.141922822595977494,-0.105851302845126435
1.220935135912796676,0.525880427316308463,-0.202613054215287636
1.540860135070233339,0.770292345675155143,-0.302398840886615006
1.531075597922563647,0.537355415048519469,-0.245109063934286331
1.490916739380616640,0.183641010769276719,-0.064777204067673788
1.364987777895227072,0.109262549084716581,0.045119419165797654
1.259997376787321599,0.080411870265177349,0.105874465350901781
1.174909886769745393,0.247115342600597226,-0.001690425144238109
1.127376157904913523,0.294680084611143145,-0.055551316356058381
1.089695283124157754,0.252415507414675333,-0.088839588167370268
1.067324479969049111,0.165526597536029996,-0.076778287783310695
1.030104555611293771,0.014345617762591726,-0.184222669842216968
0.947874231594291738,-0.036541523801724665,-0.217914132379616043
0.896925764846733919,0.138692663924476683,-0.131799541744521104
1.059137510281452421,0.326696746515663106,-0.126067535060497171
1.170559394549461230,0.397130529665492504,-0.038613642111225560
0.959983595014855084,0.463304030820299861,0.095352264918111801
0.827448905895186826,0.456294747568228243,0.164112451628198874
0.887515536210949585,0.465244593299487641,0.094711661556480281
0.971507679570153604,0.482254289648841261,-0.027954266597687200
1.080112895642505899,0.503666074235934902,-0.113369738858187893
1.156547518805643993,0.498074445578209957,-0.108583233230754556
1.262157763099924779,0.500796040017826849,-0.017131359897729771
1.278154107428775665,0.493695671039879158,-0.008767878878919767
1.321800967533695692,0.505949087648725815,-0.123567576401495974
1.131504086942720200,0.666237322978366464,-0.264985138616941951
1.181522033279087225,0.997915389844920342,-0.169597446092254522
1.425782538701957813,1.045446028836216401,-0.023388599630714817
1.598200874139480421,0.862072148657131887,-0.013806869982625598
1.538413329991330958,0.725464101101304215,0.018446326134190144
1.042761198095425224,0.457698884426852859,-0.097287907147630331
0.977201911325390582,0.332003607531558220,-0.299586389793943197
1.198105068632092651,0.435190234314076552,-0.231701729308700283
0.903845417108252280,0.360443300139836442,-0.020442101147721530
0.740134699152543707,0.240043828367482170,0.056161765251212012
0.660783813070689008,0.151675299486561027,0.006003094543457509
0.917690080750043102,0.293172729552276135,-0.073868616181897065
1.173462691612222608,0.325957856930826517,0.051857059690425061
1.218961260372884547,0.405831550606774283,-0.058747358368658291
1.216433571832522764,0.447100765977287540,-0.013473821857104497
1.258246936108034397,0.493222657754644966,0.019854773221036605
1.172552868986575403,0.678569258826690502,-0.215238712566136497
1.210963873826252701,0.814520407145017389,-0.387565767445405385
1.465375918398013955,0.805953377556395290,-0.290691270146541725
1.490294609443760798,0.667725352682973616,-0.241231759755586389
1.366882743453611937,0.578283005402664640,-0.258868258779579086
1.097823241953965967,0.428988004578511051,-0.162654836649787637
0.759297586696269788,0.123961992642764696,-0.161833340414680171
0.863151757053993829,0.126463820944306971,-0.271994370307461875
1.064399996816045579,0.289109929820224987,-0.331768161076781976
1.057603098847761158,0.322760912695296220,-0.290653981900708069
0.898995176001466501,0.225059225262401741,-0.160498229528295150
0.707017758860650547,0.261591486246667948,-0.112794541420666972
0.711421015184367955,0.254251262525194643,-0.046934888496721859
0.824725499607880996,0.283335099886442510,-0.078816414876647242
0.846770098793223625,0.220027210592561112,-0.128052219354965746
0.851969815588325852,0.268943779776463499,-0.144416271991122863
0.977330612146442457,0.279606403051707253,-0.122723571165848644
1.067034800756314628,0.319390129135362855,-0.121890279574318180
1.285916364267876810,0.369910450044469430,-0.124015743186458027
1.391766883222258944,0.398868769421433012,-0.086021612281371229
1.314120693044395383,0.227946143551216313,-0.148586762392768690
1.578218079371668914,0.335841925997346413,-0.224312612794526384
1.536477365279318663,0.969376655379681318,-0.030708412388420842
1.017471445940217434,0.806341034159309022,0.087961362864068124
1.109417917152139887,0.215427347320843898,-0.022872462454820469
1.437444243870034555,0.550300847829483963,0.066754485764412272
1.318810642272927769,0.768852391296766524,0.111168156082718822
1.106664893287564233,0.658466787691372235,0.146209928173845816
0.888580390700461686,0.318965687854423807,0.205665408120733750
0.871997368391467020,0.333480252104052077,0.106790818149034086
0.983224821879035371,0.148503446116998394,0.033543993234582917
0.975011320026453521,0.324645506383224980,-0.065101902494794972
0.915197930226747336,0.507065215862624208,-0.094257391572343807
0.881897439382061110,0.622588760194769164,-0.110899096226464655
0.913086734300593950,0.728492993071755079,-0.094064451689215414
1.062054459713597909,0.724712749802942757,-0.092747406722349171
1.164075134241913556,0.761083053272995969,-0.054780144014413543
1.260219125350541258,0.725989220164736215,-0.008704836900526116
1.458106391117276912,0.742206206650541045,-0.002820758848866827
1.399904735539748479,0.793390682343085962,0.095453634912440341
1.137048820986996889,0.621601871737190059,0.047702606800220336
1.241374534812842878,0.488981967686997310,-0.054354947594245390
1.420452748058945946,0.440814972634897884,-0.159783292138305916
1.488530816621627118,0.438728678233886726,-0.200324017474523802
1.253877244321450979,0.410312032751903422,-0.227116840015412991
1.110012314017861046,0.436790060360175536,-0.174881999008799888
0.992364270641847623,0.381359646325565849,-0.097807666535388957
0.936706242724545057,0.402508325135768730,-0.077709746579354519
0.891558136392165634,0.367604185598313371,-0.065800685331749931
0.834262142314237343,0.362341223565355086,-0.152712435719337764
0.820943472541407537,0.324447339444045246,-0.177552094954955220
0.856297435420962039,0.284056937961654321,-0.156706140790889487
0.882179498813583152,0.341031146585059841,-0.135851090753756981
0.773652592269683526,0.315885354222769865,-0.029867358289359207
0.907892964033309324,0.371777600317570844,-0.053309200197837268
0.991853229152785065,0.366320459690582190,-0.110169253764566877
0.719717185900179524,-0.019623117085317488,-0.100608079808328130
1.075043579009871797,-0.258575976409590957,-0.196427826507148268
1.540087546770473104,0.132133676070502804,-0.274216098542652165
1.683508152284355130,0.529861315276005884,-0.297249803337562957
1.537339868980640789,0.612611864703966780,-0.220296230953615141
1.247527631362772782,0.414068528309273931,-0.042029324435285398
1.205789903578342148,0.345493254625252377,0.002791602210285236
1.230159342080588969,0.000883398045544413,0.163133098793877829
1.189490227667372890,0.037268479180587302,0.006466702863970368
1.098665447200646517,0.154988106983714624,-0.146452370676381727
0.976575636219941035,0.088174057515884419,-0.081770978652525902
0.846529824133122388,0.193790485655214506,-0.074594476927027753
0.893334508783363512,0.285059058655469877,-0.069978066644543646
0.924061866538929744,0.368442634277401482,-0.036712136064952008
0.910118994244947355,0.450676146105103204,-0.040871367573817124
1.146409245739245852,0.546686158514831599,-0.034570559841982783
1.203975706419598390,0.713370368162035695,0.048383659255295801
0.986311356224041424,0.704184264127197479,0.062902105259195665
0.876536744195276385,0.675138518130348753,0.037215783246779530
0.995592184481334574,0.674184284764619335,-0.167441006739581677
1.296309851330263552,0.775542411982556135,-0.181135047313993297
1.488371811709876535,0.803069125017418339,0.046876457773067225
1.629545801374952863,0.829071306151700438,-0.013560529242834147
1.682359242860745230,0.713971439849303446,-0.070801516188340519
1.626095924806063131,0.712581521311548061,-0.050730506371662154
1.509341563813660692,0.567007899110147706,-0.056018957120564788
1.347769659793421226,0.442728624974729645,-0.185111189772485168
1.251749122535467551,0.489069331640838434,-0.251745787043817670
1.204981262868795699,0.529242303495833899,-0.194522824075625156
1.290797196647887723,0.568943087982830331,-0.177267174545999412
1.241563032109476827,0.503980789112946748,-0.079024301773889069
1.033764802080488376,0.397479410227798202,-0.019254912143385122
1.179802998492283095,0.307224965063636501,-0.087988356482935765
1.106664606105038029,0.282874982326765556,-0.084545805961724757
0.564584084594719093,0.197993581036539745,-0.081204247954998088
0.433541734954794644,0.127122664787284345,-0.107119096440916356
0.773374205659509761,0.199388810514756376,-0.165750674264774939
1.349572264123067411,0.517830372661901461,-0.209708783580512620
1.380279722754894633,0.612442881748778256,-0.213460339340064531
1.374088415150527265,0.496013676055199026,-0.102542389077209362
1.288328218738777009,0.445088443126483546,-0.078666003222266925
1.186919467389087268,0.427513759182740483,-0.104267193677798617
1.217250330758548715,0.420592665801745091,-0.301487811955806928
1.148885655351407520,0.523725906317583756,-0.606448110808154861
1.230065677927893342,0.672224271599083489,-0.531530385456236432
1.252226998818298576,0.522823407384063854,-0.301080010379878971
1.201014011996134112,0.228837523925737446,-0.186616689599253788
1.082693661556849207,-0.115757554988980702,-0.220908851653504268
0.739718318686711118,-0.387242498451715211,-0.372321143133676924
0.962578712856021923,0.068914332084748134,-0.242368331271025805
0.947465745048187258,0.387668628035276519,-0.184598447122489157
0.788935531277270563,0.631470504660403331,-0.173428156441029463
0.687960798854693634,0.591487289042256115,-0.079734334718603195
0.673363832323773170,0.486044888225461436,-0.042936488690919566
0.704992792470699570,0.434360551774370218,0.047807505932083501
0.731505691425719529,0.367464386627115891,0.060321290355511502
0.781677296599094240,0.297363258447202572,0.023671030672237203
0.801386664544583627,0.267861053996667819,0.064959832158691291
0.976363867204757097,0.309839540955994031,0.136493060638107455
1.133046718610698056,0.452629666975892353,0.109219016436419056
1.304228628121905542,0.543206349136117983,0.057338240611431536
1.484316945230144569,0.491421956912698688,0.079456431452308282
1.582416199721448757,0.546424207894334435,0.072150241533099943
1.727589618725452247,0.722679219658446281,0.007778106400814487
1.696153115879034390,0.766900025582370914,-0.037714818768969767
1.792322352186144219,0.758016007272101722,-0.069784548355568063
1.941028616848804234,0.780409698615471825,-0.179528932452584528
1.849095424763385509,0.815626838529424858,-0.204995656095745632
1.188532874864659972,0.731771430976544623,0.068835476624136194
